wall_time,cur_time,cur_loop_dt,cur_ctrl_freq,loop_count,fc_time_boot_ms,hb_age_s,sent_mode,echoed_mode,armed,drone_px_ref,drone_py_ref,drone_pz_ref,drone_vx_ref,drone_vy_ref,drone_vz_ref,payload_px_ref,payload_py_ref,payload_pz_ref,payload_vx_ref,payload_vy_ref,payload_vz_ref,payload_alpha_x,payload_alpha_y,payload_alphadot_x,payload_alphadot_y,ux,uy,uz,yaw_ref,yaw_rate_ref,drone_px_meas,drone_py_meas,drone_pz_meas,drone_vx_meas,drone_vy_meas,drone_vz_meas,drone_ax_meas,drone_ay_meas,drone_az_meas,drone_gyrox_meas,drone_gyroy_meas,drone_gyroz_meas,drone_roll,drone_pitch,drone_yaw,drone_yaw_rate,sent_setpoint_bitmask,echoed_setpoint_bitmask,setpoint_bitmask_callback_dt,batt_voltage,batt_current,batt_rem_percent,GPS_fix_type,sat_count,HDOP,ekf_flags,ekf_pos_horiz_var,ekf_pos_vert_var,ekf_vel_var,ch1,ch2,ch3,ch4,ch5,ch6,ch7,ch8,servo1,servo2,servo3,servo4,servo5,servo6,servo7,servo8
1787009841.0036,0.0000,nan,nan,1,1368754,0.034,LOITER,GUIDED,128,nan,nan,nan,nan,nan,nan,0.07102994920382333,-1.3240178278321189,-7.71822714805603,0.0,0.0,0.0,-0.6544017151995369,0.5476531799159836,0.012590692778723371,-0.010536850343539478,-12.294991094332063,10.331871452196175,0.006872284676987659,0.38711780309677124,0,6.614997386932373,-6.80050802230835,2.2817728519439697,-0.033297810703516006,0.010280190967023373,-0.004859439097344875,4,-8,-1000,0,0,0,0.006025856826454401,0.02375250682234764,0.3871057331562042,-0.0005384762189351022,63,3079,nan,23.76,2.84,98,4,18,1.25,831,0.006983581464737654,0.0026172157377004623,0.046077605336904526,1500,1500,1504,1498,1102,1500,1897,1424,1156,1150,1167,1172,0,0,0,0
1787009841.0045,0.0247,0.00091,1093.07,2,1368774,0.034,LOITER,GUIDED,128,nan,nan,nan,nan,nan,nan,0.07102994920382333,-1.3240178278321189,-7.71822714805603,0.0,0.0,0.0,-0.6540902817403231,0.5473925486854884,0.05888183113516675,-0.04938189140331127,-12.513580374719867,10.512460939247251,0.00786725157374857,0.38711780309677124,0,6.615387439727783,-6.798891544342041,2.2812273502349854,-0.03302425146102905,0.010423722676932812,-0.005177258979529142,2,-8,-999,0,0,0,0.006036148406565189,0.023750776425004005,0.38710975646972656,-0.00011536580859683454,63,3079,0.0003688335418701172,23.76,2.84,98,4,18,1.25,831,0.006983581464737654,0.0026172157377004623,0.046077605336904526,1500,1500,1504,1498,1102,1500,1897,1424,1156,1150,1167,1172,0,0,0,0
1787009841.0215,0.0402,0.01704,58.67,3,1368794,0.051,LOITER,GUIDED,128,nan,nan,nan,nan,nan,nan,0.07102994920382333,-1.3240178278321189,-7.71822714805603,0.0,0.0,0.0,-0.6542637288220163,0.5480220409035417,0.07148584270687475,-0.0525065419045274,-12.575843356286692,10.530556454289155,0.008407205991389216,0.38711780309677124,0,6.615720272064209,-6.797382831573486,2.280709981918335,-0.03284963220357895,0.010761837475001812,-0.005193229764699936,2,-8,-999,0,0,0,0.006037979386746883,0.023745685815811157,0.38709762692451477,-0.0002483306743670255,63,3135,0.016304969787597656,23.76,2.84,98,4,18,1.25,831,0.006983581464737654,0.0026172157377004623,0.046077605336904526,1500,1500,1504,1498,1102,1500,1897,1424,1156,1150,1167,1172,0,0,0,0
1787009841.0403,0.0602,0.01879,53.22,4,1368814,0.070,LOITER,GUIDED,128,nan,nan,nan,nan,nan,nan,0.07102994920382333,-1.3240178278321189,-7.71822714805603,0.0,0.0,0.0,-0.653910576703808,0.5474160898922824,0.0943206933708927,-0.07806626389789306,-12.681208663269775,10.645931247653586,0.00876552150497943,0.38711780309677124,0,6.615538120269775,-6.7965545654296875,2.280486822128296,-0.03285037353634834,0.010796365328133106,-0.0052887992933392525,1,-8,-999,0,0,0,0.0060377237387001514,0.023729758337140083,0.3871048092842102,0.00016389197844546288,63,3135,0.018042564392089844,23.76,2.84,98,4,18,1.25,831,0.00680342735722661,0.00042668243986554444,0.04575048387050629,1500,1500,1504,1498,1102,1500,1897,1424,1156,1150,1167,1172,0,0,0,0
1787009841.0602,0.0801,0.01993,50.18,5,1368835,0.090,LOITER,GUIDED,128,nan,nan,nan,nan,nan,nan,0.07102994920382333,-1.3240178278321189,-7.71822714805603,0.0,0.0,0.0,-0.6532544046296124,0.5469715494114598,0.11645863034737333,-0.09552808096049815,-12.781493982047337,10.721751607842567,0.008786453577837793,0.38711780309677124,0,6.61557149887085,-6.794467449188232,2.2803428173065186,-0.032564111053943634,0.01132087130099535,-0.005201773717999458,1,-7,-999,0,0,0,0.0060536921955645084,0.023730844259262085,0.38708531856536865,-0.00048722821520641446,63,3135,0.0191037654876709,23.76,2.84,98,4,18,1.25,831,0.00680342735722661,0.00042668243986554444,0.04575048387050629,1500,1500,1504,1498,1102,1500,1897,1424,1156,1150,1167,1172,0,0,0,0
1787009841.0801,0.1001,0.01981,50.49,6,1368854,0.110,LOITER,GUIDED,128,nan,nan,nan,nan,nan,nan,0.07102994920382333,-1.3240178278321189,-7.71822714805603,0.0,0.0,0.0,-0.6525259016539935,0.5461824277750369,0.13593362892029293,-0.11445923366912886,-12.86691356926633,10.802031422932053,0.008667514680010681,0.38711780309677124,0,6.6151652336120605,-6.793011665344238,2.2803165912628174,-0.03273980692028999,0.011897084303200245,-0.005099126603454351,1,-7,-1000,0,0,0,0.006044227164238691,0.023719944059848785,0.3870740532875061,-0.00048197447904385626,63,3135,0.019175291061401367,23.76,2.84,98,4,18,1.25,831,0.00680342735722661,0.00042668243986554444,0.04575048387050629,1500,1500,1504,1498,1102,1500,1897,1424,1156,1150,1167,1172,0,0,0,0
1787009841.1001,0.1201,0.02002,49.95,7,1368874,0.130,LOITER,GUIDED,128,nan,nan,nan,nan,nan,nan,0.07102994920382333,-1.3240178278321189,-7.71822714805603,0.0,0.0,0.0,-0.6517841926721765,0.5457136267471303,0.15341662794490887,-0.1273936822344808,-12.9435304110072,10.854679771829758,0.00841157951803854,0.38711780309677124,0,6.614984512329102,-6.790467739105225,2.280351161956787,-0.032680612057447433,0.012817667797207832,-0.004942598287016153,2,-8,-999,0,0,0,0.006050752941519022,0.023716844618320465,0.3870639503002167,-0.0002674938295967877,63,3135,0.019368648529052734,23.76,2.84,98,4,18,1.25,831,0.00680342735722661,0.00042668243986554444,0.04575048387050629,1500,1500,1504,1498,1102,1500,1897,1424,1156,1150,1167,1172,0,0,0,0
1787009841.1200,0.1401,0.01993,50.17,8,1368894,0.150,LOITER,GUIDED,128,nan,nan,nan,nan,nan,nan,0.07102994920382333,-1.3240178278321189,-7.71822714805603,0.0,0.0,0.0,-0.6508795477405472,0.5449734785827637,0.17129866534028076,-0.14243699688031364,-13.02116157149768,10.915895226540687,0.00813657086588904,0.38711780309677124,0,6.61476993560791,-6.788090229034424,2.280367851257324,-0.03237873688340187,0.013424326665699482,-0.004759938921779394,2,-7,-1000,0,0,0,0.0060424841940402985,0.02371337078511715,0.38705042004585266,-0.0005094087100587785,63,3135,0.01929020881652832,23.76,2.84,98,4,18,1.25,831,0.00680342735722661,0.00042668243986554444,0.04575048387050629,1500,1500,1504,1498,1102,1500,1897,1424,1156,1150,1167,1172,0,0,0,0
1787009841.1400,0.1601,0.01995,50.12,9,1368914,0.170,LOITER,GUIDED,128,nan,nan,nan,nan,nan,nan,0.07102994920382333,-1.3240178278321189,-7.71822714805603,0.0,0.0,0.0,-0.6500326202325152,0.5440888533178658,0.18772820800331472,-0.15791460326374535,-13.090788926911744,10.979636598189485,0.008197965758750994,0.38711780309677124,0,6.6143364906311035,-6.786825180053711,2.280360698699951,-0.03264889866113663,0.013773933053016663,-0.004798294045031071,1,-8,-999,0,0,0,0.0060498774982988834,0.02370527945458889,0.387056827545166,0.0005469114403240383,63,3135,0.01934504508972168,23.76,2.84,98,4,18,1.25,831,0.00680342735722661,0.00042668243986554444,0.04575048387050629,1500,1500,1504,1498,1102,1500,1897,1424,1156,1150,1167,1172,0,0,0,0
1787009841.1601,0.1801,0.02010,49.74,10,1368934,0.001,LOITER,GUIDED,128,nan,nan,nan,nan,nan,nan,0.07102994920382333,-1.3240178278321189,-7.71822714805603,0.0,0.0,0.0,-0.6490396940177575,0.5432498265115284,0.204919479018769,-0.17228774396893717,-13.163829567109708,11.03700436228635,0.007957912671195654,0.38711780309677124,0,6.614084720611572,-6.784673690795898,2.280426502227783,-0.03254884108901024,0.014385763555765152,-0.0046750809997320175,2,-7,-1000,0,0,0,0.0060440474189817905,0.02369273640215397,0.38704007863998413,-0.00037259538657963276,63,3135,0.019474267959594727,23.76,2.84,98,4,18,1.25,831,0.00680342735722661,0.00042668243986554444,0.04575048387050629,1500,1500,1504,1498,1102,1500,1897,1424,1156,1150,1167,1172,0,0,0,0
1787009841.1804,0.2001,0.02037,49.10,11,1368954,0.021,LOITER,GUIDED,128,nan,nan,nan,nan,nan,nan,0.07102994920382333,-1.3240178278321189,-7.71822714805603,0.0,0.0,0.0,-0.6479075314032853,0.542358478728971,0.22259641001102934,-0.18660468492768345,-13.237056930118234,11.095700618187092,0.0077843092308453096,0.38711780309677124,0,6.613622665405273,-6.78350305557251,2.280407190322876,-0.0327327661216259,0.01455200370401144,-0.004538669250905514,1,-8,-1000,0,0,0,0.006036755628883839,0.02369113080203533,0.38703885674476624,-8.165031613316387e-05,63,3135,0.019780874252319336,23.75,2.84,98,4,17,1.25,831,0.00680342735722661,0.00042668243986554444,0.04575048387050629,1500,1500,1504,1498,1102,1500,1897,1424,1156,1150,1168,1172,0,0,0,0
1787009841.2000,0.2201,0.01961,50.99,12,1368974,0.041,LOITER,GUIDED,128,nan,nan,nan,nan,nan,nan,0.07102994920382333,-1.3240178278321189,-7.71822714805603,0.0,0.0,0.0,-0.646701242125366,0.5412574031614087,0.2402853048858612,-0.20201119948053897,-13.310201426387536,11.155852116373596,0.0077846129219784465,0.38711780309677124,0,6.613344192504883,-6.781556606292725,2.280449390411377,-0.032779939472675323,0.01517527736723423,-0.00456872396171093,2,-8,-999,0,0,0,0.0060353041626513,0.023681871592998505,0.3870263397693634,-0.000542615947779268,63,3135,0.018972396850585938,23.75,2.84,98,4,17,1.25,831,0.00680342735722661,0.00042668243986554444,0.04575048387050629,1500,1500,1504,1498,1102,1500,1897,1424,1156,1150,1168,1172,0,0,0,0
1787009841.2202,0.2401,0.02018,49.56,13,1368994,0.061,LOITER,GUIDED,128,nan,nan,nan,nan,nan,nan,0.07102994920382333,-1.3240178278321189,-7.71822714805603,0.0,0.0,0.0,-0.6452978245573106,0.5401390176538682,0.25873641162196165,-0.21703051124941536,-13.38535980435283,11.214214734992222,0.0077794579739611305,0.38711780309677124,0,6.613040447235107,-6.779730319976807,2.280472755432129,-0.03276477009057999,0.015762871131300926,-0.0045816004276275635,3,-9,-999,0,0,0,0.0060249255038797855,0.023671545088291168,0.38702303171157837,-0.00013475120067596436,63,3135,0.019417285919189453,23.75,2.84,98,4,17,1.25,831,0.00680342735722661,0.00042668243986554444,0.04575048387050629,1500,1500,1504,1498,1102,1500,1897,1424,1156,1150,1168,1172,0,0,0,0
1787009841.2400,0.2601,0.01981,50.49,14,1369014,0.081,LOITER,GUIDED,128,nan,nan,nan,nan,nan,nan,0.07102994920382333,-1.3240178278321189,-7.71822714805603,0.0,0.0,0.0,-0.6437946901358337,0.5388734653750797,0.2772230199780946,-0.23251477811894083,-13.459442093114838,11.27541182032776,0.007815035215133492,0.38711780309677124,0,6.612538814544678,-6.778692722320557,2.2804601192474365,-0.032819006592035294,0.015882262960076332,-0.004597822204232216,4,-9,-999,0,0,0,0.00603563291952014,0.023675762116909027,0.38701871037483215,-8.680850442033261e-05,63,3135,0.019169092178344727,23.75,2.84,98,4,17,1.25,831,0.006177782546728849,0.0014632944948971272,0.025705089792609215,1500,1500,1504,1498,1102,1500,1897,1424,1156,1150,1168,1172,0,0,0,0
1787009841.2603,0.2802,0.02031,49.22,15,1369035,0.101,LOITER,GUIDED,128,nan,nan,nan,nan,nan,nan,0.07102994920382333,-1.3240178278321189,-7.71822714805603,0.0,0.0,0.0,-0.6421595717587933,0.5373919657205048,0.2960197295664393,-0.24881732829661746,-13.534407015620015,11.337316035460145,0.008620377234635237,0.38711780309677124,0,6.611961364746094,-6.777011871337891,2.280133008956909,-0.03260551393032074,0.016266148537397385,-0.00493598310276866,4,-8,-998,0,0,0,0.006025126203894615,0.023681582883000374,0.38700976967811584,-0.0002094623923767358,63,3135,0.019455909729003906,23.75,2.84,98,4,17,1.25,831,0.006177782546728849,0.0014632944948971272,0.025705089792609215,1500,1500,1504,1498,1102,1500,1897,1424,1156,1150,1168,1172,0,0,0,0
1787009841.2802,0.3002,0.01988,50.30,16,1369054,0.121,LOITER,GUIDED,128,nan,nan,nan,nan,nan,nan,0.07102994920382333,-1.3240178278321189,-7.71822714805603,0.0,0.0,0.0,-0.6404273128232075,0.5359869708427035,0.3147925942564204,-0.264217582472921,-13.607642874089565,11.396936481411272,0.009050214632074624,0.38711780309677124,0,6.611231327056885,-6.77604341506958,2.2797372341156006,-0.03264296427369118,0.016392230987548828,-0.004960068967193365,5,-8,-1000,0,0,0,0.006027407944202423,0.023668473586440086,0.3870109021663666,1.2423130101524293e-05,63,3135,0.019179344177246094,23.75,2.84,98,4,17,1.25,831,0.006177782546728849,0.0014632944948971272,0.025705089792609215,1500,1500,1504,1498,1102,1500,1897,1424,1156,1150,1168,1172,0,0,0,0
1787009841.3000,0.3201,0.01981,50.48,17,1369074,0.141,LOITER,GUIDED,128,nan,nan,nan,nan,nan,nan,0.07102994920382333,-1.3240178278321189,-7.71822714805603,0.0,0.0,0.0,-0.6386096119308832,0.5344226345063908,0.33348972130727406,-0.28001367064938304,-13.67945334858307,11.456598388116161,0.009945852619674723,0.38711780309677124,0,6.610414505004883,-6.774496555328369,2.2790744304656982,-0.03277339041233063,0.01645972765982151,-0.005124707706272602,4,-9,-1000,0,0,0,0.006027439143508673,0.02365867979824543,0.3870132565498352,0.0004161849501542747,63,3135,0.01918959617614746,23.75,2.84,98,4,17,1.25,831,0.006177782546728849,0.0014632944948971272,0.025705089792609215,1500,1500,1504,1498,1102,1500,1897,1424,1156,1150,1168,1172,0,0,0,0
1787009841.3201,0.3401,0.02002,49.96,18,1369094,0.161,LOITER,GUIDED,128,nan,nan,nan,nan,nan,nan,0.07102994920382333,-1.3240178278321189,-7.71822714805603,0.0,0.0,0.0,-0.6366576752417292,0.5327077139673422,0.3523808709585811,-0.2961203037922923,-13.751401935050435,11.516219417290817,0.010569371634014457,0.38711780309677124,0,6.609621524810791,-6.7730512619018555,2.2784531116485596,-0.03274864703416824,0.016648145392537117,-0.005126263480633497,5,-8,-1000,0,0,0,0.006018512416630983,0.023648153990507126,0.38700175285339355,-0.0003042865719180554,63,3135,0.019397735595703125,23.75,2.84,98,4,17,1.25,831,0.006177782546728849,0.0014632944948971272,0.025705089792609215,1500,1500,1504,1498,1102,1500,1897,1424,1156,1150,1168,1172,0,0,0,0
1787009841.3400,0.3601,0.01998,50.04,19,1369114,0.181,LOITER,GUIDED,128,nan,nan,nan,nan,nan,nan,0.07102994920382333,-1.3240178278321189,-7.71822714805603,0.0,0.0,0.0,-0.6345878587564202,0.5308718788121459,0.3713374730017081,-0.3123338549442972,-13.822228907407425,11.576325196855159,0.01131807160656866,0.38711780309677124,0,6.6089019775390625,-6.772194862365723,2.277996301651001,-0.032917145639657974,0.016648858785629272,-0.005332660861313343,4,-7,-999,0,0,0,0.006031022407114506,0.023652665317058563,0.386995792388916,-0.00024116015993058681,63,3135,0.01935601234436035,23.75,2.84,98,4,17,1.25,831,0.006177782546728849,0.0014632944948971272,0.025705089792609215,1500,1500,1504,1498,1102,1500,1897,1424,1156,1150,1168,1172,0,0,0,0
1787009841.3601,0.3801,0.02003,49.92,20,1369134,0.201,LOITER,GUIDED,128,nan,nan,nan,nan,nan,nan,0.07102994920382333,-1.3240178278321189,-7.71822714805603,0.0,0.0,0.0,-0.6324119382326242,0.5289736841362321,0.39028550604543655,-0.32838957308001243,-13.892079728887731,11.634232239258333,0.01212166200429185,0.38711780309677124,0,6.608113765716553,-6.770874977111816,2.27722430229187,-0.03305704891681671,0.016829289495944977,-0.005354999098926783,5,-7,-1000,0,0,0,0.006026377435773611,0.02363600581884384,0.38699328899383545,-0.00025380507577210665,63,3135,0.019375085830688477,23.75,2.84,98,4,17,1.25,831,0.006177782546728849,0.0014632944948971272,0.025705089792609215,1500,1500,1504,1498,1102,1500,1897,1424,1156,1150,1168,1172,0,0,0,0
1787009841.3802,0.4001,0.02011,49.73,21,1369154,0.221,LOITER,GUIDED,128,nan,nan,nan,nan,nan,nan,0.07102994920382333,-1.3240178278321189,-7.71822714805603,0.0,0.0,0.0,-0.6300647181477581,0.5269542308357886,0.409458194176903,-0.3445222459093975,-13.961471204626394,11.691956368225618,0.012570421426425522,0.38711780309677124,0,6.607387542724609,-6.770070552825928,2.2768032550811768,-0.033229902386665344,0.017007702961564064,-0.00537459459155798,4,-7,-999,0,0,0,0.006033416371792555,0.023638928309082985,0.38698917627334595,-9.22724066185765e-05,63,3135,0.01940131187438965,23.75,2.84,98,4,17,1.25,831,0.006177782546728849,0.0014632944948971272,0.025705089792609215,1500,1500,1504,1498,1102,1500,1897,1424,1156,1150,1168,1172,0,0,0,0
1787009841.4001,0.4201,0.01991,50.22,22,1369174,0.241,LOITER,GUIDED,128,nan,nan,nan,nan,nan,nan,0.07102994920382333,-1.3240178278321189,-7.71822714805603,0.0,0.0,0.0,-0.6276333896122124,0.5249039654278429,0.42846947127678475,-0.36036236848242986,-14.029346005802074,11.747584783527813,0.013296179344198085,0.38711780309677124,0,6.606610298156738,-6.768862247467041,2.2761030197143555,-0.03338443860411644,0.01719767600297928,-0.005392641760408878,3,-7,-999,0,0,0,0.006029380951076746,0.02364518865942955,0.38697975873947144,-0.0004120417288504541,63,3135,0.019263267517089844,23.75,2.84,98,4,17,1.25,831,0.006177782546728849,0.0014632944948971272,0.025705089792609215,1500,1500,1504,1498,1102,1500,1897,1424,1156,1150,1168,1172,0,0,0,0
1787009841.4200,0.4401,0.01993,50.18,23,1369194,0.261,LOITER,GUIDED,128,nan,nan,nan,nan,nan,nan,0.07102994920382333,-1.3240178278321189,-7.71822714805603,0.0,0.0,0.0,-0.6190648255997435,0.5176974122682318,0.46883844163413985,-0.3941528987963986,-14.14480251499232,11.842846672029948,0.01402030201980179,0.38711780309677124,0,6.605851173400879,-6.767730236053467,2.275446653366089,-0.03351541981101036,0.01754777319729328,-0.005440552718937397,3,-6,-999,0,0,0,0.006018450018018484,0.023647595196962357,0.3869720697402954,-0.00023985726875253022,63,3135,0.01934051513671875,23.75,2.84,98,4,17,1.25,831,0.006177782546728849,0.0014632944948971272,0.025705089792609215,1500,1500,1504,1498,1102,1500,1897,1424,1156,1150,1168,1172,0,0,0,0
1787009841.4401,0.4601,0.02006,49.85,24,1369214,0.281,LOITER,GUIDED,128,nan,nan,nan,nan,nan,nan,0.07102994920382333,-1.3240178278321189,-7.71822714805603,0.0,0.0,0.0,-0.6181431164397218,0.5169705603407165,0.4804293281496258,-0.4035830230109346,-14.190799505240072,11.879852679414778,0.014358962300209452,0.38711780309677124,0,6.60513973236084,-6.767012119293213,2.2750661373138428,-0.033647820353507996,0.01785421557724476,-0.005410956218838692,4,-7,-1000,0,0,0,0.0060143861919641495,0.023648373782634735,0.38696956634521484,0.00024052824301179498,63,3135,0.019430160522460938,23.75,2.84,98,4,17,1.25,831,0.005968809127807617,0.004123795311897993,0.025944896042346954,1500,1500,1504,1498,1102,1500,1897,1424,1156,1150,1168,1172,0,0,0,0
1787009841.4600,0.4801,0.01996,50.09,25,1369235,0.301,LOITER,GUIDED,128,nan,nan,nan,nan,nan,nan,0.07102994920382333,-1.3240178278321189,-7.71822714805603,0.0,0.0,0.0,-0.6167214766289711,0.5157195175852598,0.4940134985472898,-0.4150548782046364,-14.244073687490923,11.920688134237466,0.015372592724762235,0.38711780309677124,0,6.6052398681640625,-6.765542030334473,2.2741780281066895,-0.03320513293147087,0.01837233081459999,-0.005499713122844696,4,-6,-999,0,0,0,0.006006449926644564,0.02365417778491974,0.38695621490478516,-0.00025559551431797445,63,3135,0.0193178653717041,23.75,2.84,98,4,17,1.25,831,0.005968809127807617,0.004123795311897993,0.025944896042346954,1500,1500,1504,1498,1102,1500,1897,1424,1156,1150,1168,1172,0,0,0,0
1787009841.4800,0.5001,0.02001,49.97,26,1369254,0.321,LOITER,GUIDED,128,nan,nan,nan,nan,nan,nan,0.07102994920382333,-1.3240178278321189,-7.71822714805603,0.0,0.0,0.0,-0.614873831461447,0.5141798384036145,0.5090652278929272,-0.42752023552364876,-14.299787986498986,11.964394598328441,0.015896601017858038,0.38711780309677124,0,6.605377674102783,-6.764458656311035,2.2735755443573,-0.033103518187999725,0.018765367567539215,-0.005444222595542669,4,-7,-1000,0,0,0,0.006013012956827879,0.02365400269627571,0.38696613907814026,0.0006205820827744901,63,3135,0.01937389373779297,23.75,2.84,98,4,17,1.25,831,0.005968809127807617,0.004123795311897993,0.025944896042346954,1500,1500,1504,1498,1102,1500,1897,1424,1156,1150,1168,1172,0,0,0,0
1787009841.5001,0.5201,0.02002,49.96,27,1369274,0.341,LOITER,GUIDED,128,nan,nan,nan,nan,nan,nan,0.07102994920382333,-1.3240178278321189,-7.71822714805603,0.0,0.0,0.0,-0.6126890106218346,0.5123756914968434,0.5250277194254255,-0.4406992650793373,-14.35931763565647,12.00849621162064,0.017127624646031226,0.38711780309677124,0,6.606229305267334,-6.762739658355713,2.272535562515259,-0.03228117525577545,0.01917201094329357,-0.0055793095380067825,4,-7,-1000,0,0,0,0.006018824875354767,0.023656878620386124,0.38695254921913147,-0.00036775798071175814,63,3135,0.019365787506103516,23.75,2.84,98,4,17,1.25,831,0.005968809127807617,0.004123795311897993,0.025944896042346954,1500,1500,1504,1498,1102,1500,1897,1424,1156,1150,1168,1172,0,0,0,0
1787009841.5199,0.5401,0.01979,50.52,28,1369294,0.361,LOITER,GUIDED,128,nan,nan,nan,nan,nan,nan,0.07102994920382333,-1.3240178278321189,-7.71822714805603,0.0,0.0,0.0,-0.6021977292982863,0.5035694898469798,0.5657313358515106,-0.47473898144393784,-14.462528215075494,12.09051110304276,0.01839502169978234,0.38711780309677124,0,6.606966018676758,-6.761124134063721,2.2715630531311035,-0.031740233302116394,0.01945631206035614,-0.005787826608866453,4,-7,-999,0,0,0,0.006007855292409658,0.023653429001569748,0.3869309723377228,-0.0006321602268144488,63,3135,0.01935410499572754,23.75,2.84,98,4,17,1.25,831,0.005968809127807617,0.004123795311897993,0.025944896042346954,1500,1500,1504,1498,1102,1500,1897,1424,1156,1150,1168,1172,0,0,0,0
1787009841.5416,0.5601,0.02175,45.98,29,1369314,0.382,LOITER,GUIDED,128,nan,nan,nan,nan,nan,nan,0.07102994920382333,-1.3240178278321189,-7.71822714805603,0.0,0.0,0.0,-0.6016830639791487,0.5030743979827169,0.5748760073549415,-0.48247286996135574,-14.502346723189453,12.12168277649637,0.01902741915303833,0.38711780309677124,0,6.606992244720459,-6.760168552398682,2.2709546089172363,-0.03140297904610634,0.019584374502301216,-0.005804764106869698,4,-7,-999,0,0,0,0.0060151987709105015,0.023652922362089157,0.3869372010231018,0.00010661588748916984,63,3135,0.019591808319091797,23.75,2.84,98,4,17,1.25,831,0.005968809127807617,0.004123795311897993,0.025944896042346954,1500,1500,1504,1498,1102,1500,1897,1424,1156,1150,1168,1172,0,0,0,0
1787009841.5601,0.5801,0.01846,54.17,30,1369334,0.401,LOITER,GUIDED,128,nan,nan,nan,nan,nan,nan,0.07102994920382333,-1.3240178278321189,-7.71822714805603,0.0,0.0,0.0,-0.6005029310605751,0.5021277971194659,0.5862153609019864,-0.49172977184647587,-14.54694484820238,12.154903263781614,0.020315319931412782,0.38711780309677124,0,6.607593059539795,-6.758697509765625,2.2699086666107178,-0.031218718737363815,0.02000265195965767,-0.005975854583084583,4,-9,-1000,0,0,0,0.00601942976936698,0.023640824481844902,0.3869381546974182,0.000139929965371266,63,3135,0.01781630516052246,23.75,2.84,98,4,17,1.25,831,0.005968809127807617,0.004123795311897993,0.025944896042346954,1500,1500,1504,1498,1102,1500,1897,1424,1156,1150,1168,1172,0,0,0,0
1787009841.5801,0.6001,0.02007,49.83,31,1369354,0.421,LOITER,GUIDED,128,nan,nan,nan,nan,nan,nan,0.07102994920382333,-1.3240178278321189,-7.71822714805603,0.0,0.0,0.0,-0.5987740410762143,0.5006265845584014,0.5991209889348689,-0.5025738331688598,-14.593468071988504,12.192280489237543,0.020748412429762657,0.38711780309677124,0,6.60755729675293,-6.757801532745361,2.2693533897399902,-0.03105594962835312,0.020039992406964302,-0.005889457184821367,4,-8,-1000,0,0,0,0.006026888731867075,0.02362764999270439,0.3869340717792511,-0.0001822120975703001,63,3135,0.019350767135620117,23.75,2.84,98,4,17,1.25,831,0.005968809127807617,0.004123795311897993,0.025944896042346954,1500,1500,1504,1498,1102,1500,1897,1424,1156,1150,1168,1172,0,0,0,0
1787009841.6001,0.6202,0.01996,50.10,32,1369374,0.441,LOITER,GUIDED,128,nan,nan,nan,nan,nan,nan,0.07102994920382333,-1.3240178278321189,-7.71822714805603,0.0,0.0,0.0,-0.5966530540617162,0.4988193380195111,0.6129352668253598,-0.5141093383359077,-14.641514148079203,12.229554381052553,0.02205652615907617,0.38711780309677124,0,6.608034133911133,-6.756455421447754,2.2684099674224854,-0.0308334082365036,0.020178522914648056,-0.006147332955151796,3,-8,-1000,0,0,0,0.006024115718901157,0.023621011525392532,0.38693153858184814,-6.1026366893202066e-05,63,3135,0.019298076629638672,23.75,2.84,98,4,17,1.25,831,0.005968809127807617,0.004123795311897993,0.025944896042346954,1500,1500,1504,1498,1102,1500,1897,1424,1156,1150,1168,1172,0,0,0,0
1787009841.6201,0.6401,0.01997,50.07,33,1369394,0.461,LOITER,GUIDED,128,nan,nan,nan,nan,nan,nan,0.07102994920382333,-1.3240178278321189,-7.71822714805603,0.0,0.0,0.0,-0.59417739900728,0.496727103602755,0.6273576310838223,-0.5261166177241084,-14.689193396005605,12.266750609077176,0.023236576831429816,0.38711780309677124,0,6.608445167541504,-6.755192756652832,2.267526865005493,-0.030638471245765686,0.020272623747587204,-0.006357307080179453,2,-9,-999,0,0,0,0.006029421929270029,0.023613618686795235,0.38691839575767517,-0.0006021658191457391,63,3135,0.019320964813232422,23.75,2.84,98,4,17,1.25,831,0.005968809127807617,0.004123795311897993,0.025944896042346954,1500,1500,1504,1498,1102,1500,1897,1424,1156,1150,1168,1172,0,0,0,0
1787009841.6402,0.6601,0.02018,49.56,34,1369414,0.481,LOITER,GUIDED,128,nan,nan,nan,nan,nan,nan,0.07102994920382333,-1.3240178278321189,-7.71822714805603,0.0,0.0,0.0,-0.5914347037261022,0.49447296168836913,0.6420461058552067,-0.5381789496343737,-14.734587890233438,12.303550053276535,0.023932002855653875,0.38711780309677124,0,6.60831356048584,-6.7543840408325195,2.2669436931610107,-0.03071393072605133,0.020236238837242126,-0.0064366827718913555,1,-9,-1000,0,0,0,0.006030721589922905,0.023624341934919357,0.3869183361530304,-3.764186112675816e-05,63,3135,0.019368648529052734,23.75,2.84,98,4,17,1.25,831,0.004145050887018442,0.003381648799404502,0.0507119856774807,1500,1500,1504,1498,1102,1500,1897,1424,1156,1150,1168,1172,0,0,0,0
1787009841.6601,0.6801,0.01980,50.50,35,1369435,0.501,LOITER,GUIDED,128,nan,nan,nan,nan,nan,nan,0.07102994920382333,-1.3240178278321189,-7.71822714805603,0.0,0.0,0.0,-0.5884776123000255,0.4920287695048537,0.6567732005384391,-0.5503139918936539,-14.779026675935576,12.339223652379088,0.025176698464860096,0.38711780309677124,0,6.608372211456299,-6.753389835357666,2.2659659385681152,-0.03055712580680847,0.020038507878780365,-0.006625438574701548,1,-9,-999,0,0,0,0.006033017300069332,0.02361433207988739,0.386913537979126,-0.00011543174332473427,63,3135,0.019168376922607422,23.75,2.84,98,4,17,1.25,831,0.004145050887018442,0.003381648799404502,0.0507119856774807,1500,1500,1504,1498,1102,1500,1897,1424,1156,1150,1168,1172,0,0,0,0
1787009841.6805,0.7001,0.02041,48.99,36,1369454,0.521,LOITER,GUIDED,128,nan,nan,nan,nan,nan,nan,0.07102994920382333,-1.3240178278321189,-7.71822714805603,0.0,0.0,0.0,-0.5854166713674018,0.48954024755029224,0.6711436706391235,-0.5620466387823916,-14.819869301367834,12.372312995186528,0.02584662219324948,0.38711780309677124,0,6.607971668243408,-6.752796649932861,2.265439748764038,-0.030617209151387215,0.02012200467288494,-0.006727073807269335,2,-8,-999,0,0,0,0.006035952363163233,0.02360636740922928,0.3869088590145111,-0.0002416774514131248,63,3135,0.019750356674194336,23.777,2.42,98,4,18,1.0,831,0.004145050887018442,0.003381648799404502,0.0507119856774807,1500,1500,1504,1498,1102,1500,1897,1424,1100,1100,1100,1100,0,0,0,0
1787009841.7000,0.7201,0.01957,51.10,37,1369474,0.541,LOITER,GUIDED,128,nan,nan,nan,nan,nan,nan,0.07102994920382333,-1.3240178278321189,-7.71822714805603,0.0,0.0,0.0,-0.5821619428237175,0.4868101870681205,0.6854212913359885,-0.5739263801803774,-14.859249518694172,12.40461876672328,0.02678259661287534,0.38711780309677124,0,6.607743740081787,-6.752035140991211,2.264561891555786,-0.03046373464167118,0.019868141040205956,-0.00676816888153553,0,-8,-1000,0,0,0,0.006028719712048769,0.023607349023222923,0.3869040906429291,4.5784341637045145e-05,63,3135,0.018947362899780273,23.777,2.42,98,4,18,1.0,831,0.004145050887018442,0.003381648799404502,0.0507119856774807,1500,1500,1504,1498,1102,1500,1897,1424,1100,1100,1100,1100,0,0,0,0
1787009841.7200,0.7401,0.01997,50.09,38,1369494,0.561,LOITER,GUIDED,128,nan,nan,nan,nan,nan,nan,0.07102994920382333,-1.3240178278321189,-7.71822714805603,0.0,0.0,0.0,-0.5788958266705977,0.48404769824961874,0.6990077005916621,-0.5852909653896587,-14.89495313708401,12.434408277762422,0.02807216981178881,0.38711780309677124,0,6.607503890991211,-6.751319408416748,2.2637405395507812,-0.030424080789089203,0.0195416621863842,-0.007099251262843609,0,-8,-999,0,0,0,0.006032321136444807,0.02360040508210659,0.3869068920612335,-2.6001085643656552e-05,63,3135,0.019322872161865234,23.777,2.42,98,4,18,1.0,831,0.004145050887018442,0.003381648799404502,0.0507119856774807,1500,1500,1504,1498,1102,1500,1897,1424,1100,1100,1100,1100,0,0,0,0
1787009841.7399,0.7601,0.01994,50.14,39,1369514,0.581,LOITER,GUIDED,128,nan,nan,nan,nan,nan,nan,0.07102994920382333,-1.3240178278321189,-7.71822714805603,0.0,0.0,0.0,-0.5755360280683919,0.4811968919562547,0.712158982493164,-0.5963169818599438,-14.927505233996143,12.46141450396113,0.028411747451409654,0.38711780309677124,0,6.607076644897461,-6.750777721405029,2.263261318206787,-0.030412262305617332,0.019449982792139053,-0.00700050825253129,1,-8,-999,0,0,0,0.006040190812200308,0.02358834259212017,0.38688579201698303,-0.0007130439626052976,63,3135,0.019355058670043945,23.777,2.42,98,4,18,1.0,831,0.004145050887018442,0.003381648799404502,0.0507119856774807,1500,1500,1504,1498,1102,1500,1897,1424,1100,1100,1100,1100,0,0,0,0
1787009841.7606,0.7802,0.02069,48.33,40,1369534,0.601,LOITER,GUIDED,128,nan,nan,nan,nan,nan,nan,0.07102994920382333,-1.3240178278321189,-7.71822714805603,0.0,0.0,0.0,-0.572111272413357,0.47828208799507416,0.7247808865900103,-0.6069230029564214,-14.957812411638912,12.485159893565626,0.02962942015718071,0.38711780309677124,0,6.60678768157959,-6.750102996826172,2.2624764442443848,-0.03010704554617405,0.019592057913541794,-0.007306543178856373,3,-7,-999,0,0,0,0.006051016505807638,0.023598382249474525,0.38687363266944885,-0.0008875994244590402,63,3135,0.019641876220703125,23.777,2.42,98,4,18,1.0,831,0.004145050887018442,0.003381648799404502,0.0507119856774807,1500,1500,1504,1498,1102,1500,1897,1424,1100,1100,1100,1100,0,0,0,0
1787009841.7802,0.8001,0.01954,51.17,41,1369554,0.621,LOITER,GUIDED,128,nan,nan,nan,nan,nan,nan,0.07102994920382333,-1.3240178278321189,-7.71822714805603,0.0,0.0,0.0,-0.5687144621619419,0.47549353249780024,0.7365904045082092,-0.6165717438205764,-14.983664417758721,12.50560122996673,0.030025303130481393,0.38711780309677124,0,6.606348037719727,-6.749586582183838,2.2620301246643066,-0.03008538857102394,0.019742587581276894,-0.007270879112184048,4,-7,-999,0,0,0,0.006052431184798479,0.023593684658408165,0.3868735432624817,0.00022848746448289603,63,3135,0.018851518630981445,23.777,2.42,98,4,18,1.0,831,0.004145050887018442,0.003381648799404502,0.0507119856774807,1500,1500,1504,1498,1102,1500,1897,1424,1100,1100,1100,1100,0,0,0,0
1787009841.8015,0.8201,0.02135,46.84,42,1369574,0.642,LOITER,GUIDED,128,nan,nan,nan,nan,nan,nan,0.07102994920382333,-1.3240178278321189,-7.71822714805603,0.0,0.0,0.0,-0.5653565565328533,0.4726644463745729,0.7475860639272687,-0.6257438836147327,-15.006441262386002,12.5236857959206,0.03107612077850428,0.38711780309677124,0,6.606049060821533,-6.748971939086914,2.2613158226013184,-0.029933784157037735,0.019741244614124298,-0.007508831564337015,4,-8,-999,0,0,0,0.00604456989094615,0.02359335869550705,0.3868788480758667,0.00037541938945651054,63,3135,0.019800662994384766,23.777,2.42,98,4,18,1.0,831,0.004145050887018442,0.003381648799404502,0.0507119856774807,1500,1500,1504,1498,1102,1500,1897,1424,1100,1100,1100,1100,0,0,0,0
1787009841.8215,0.8401,0.02002,49.96,43,1369594,0.662,LOITER,GUIDED,128,nan,nan,nan,nan,nan,nan,0.07102994920382333,-1.3240178278321189,-7.71822714805603,0.0,0.0,0.0,-0.5620480376677157,0.4698984892624071,0.7577617343632556,-0.6341713699269493,-15.025022397071014,12.538563410011863,0.03196417373406912,0.38711780309677124,0,6.605719089508057,-6.748380184173584,2.2606399059295654,-0.030071182176470757,0.019840499386191368,-0.00765883456915617,4,-8,-999,0,0,0,0.00605902960523963,0.023592839017510414,0.38688138127326965,-1.4455727068707347e-05,63,3135,0.018410921096801758,23.777,2.42,98,4,18,1.0,831,0.004145050887018442,0.003381648799404502,0.0507119856774807,1500,1500,1504,1498,1102,1500,1897,1424,1100,1100,1100,1100,0,0,0,0
1787009841.8415,0.8601,0.02000,50.01,44,1369617,0.682,LOITER,GUIDED,128,nan,nan,nan,nan,nan,nan,0.07102994920382333,-1.3240178278321189,-7.71822714805603,0.0,0.0,0.0,-0.5588361496371342,0.4671184006504932,0.7670104513213477,-0.6420797494136767,-15.039885874945902,12.552129626630395,0.03253424123914066,0.38711780309677124,0,6.605170726776123,-6.7478485107421875,2.2602968215942383,-0.03018392249941826,0.019433360546827316,-0.007819335907697678,2,-8,-999,0,0,0,0.0060659307055175304,0.023586099967360497,0.38687533140182495,2.977231633849442e-05,63,3135,0.01858687400817871,23.777,2.42,98,4,18,1.0,831,0.004786144010722637,0.0006368739996105433,0.021503712981939316,1500,1500,1504,1498,1102,1500,1897,1424,1100,1100,1100,1100,0,0,0,0
1787009841.8613,0.8801,0.01977,50.57,45,1369635,0.702,LOITER,GUIDED,128,nan,nan,nan,nan,nan,nan,0.07102994920382333,-1.3240178278321189,-7.71822714805603,0.0,0.0,0.0,-0.5557151005797433,0.46448700130229387,0.7753788308765897,-0.6490497667775363,-15.050593440514627,12.560981189345533,0.032491174996657726,0.38711780309677124,0,6.6042094230651855,-6.746985912322998,2.2602357864379883,-0.030443554744124413,0.019535228610038757,-0.007745725102722645,4,-8,-999,0,0,0,0.006060287822037935,0.02358965575695038,0.38686609268188477,-0.00024264537205453962,63,3135,0.018384933471679688,23.777,2.42,98,4,18,1.0,831,0.004786144010722637,0.0006368739996105433,0.021503712981939316,1500,1500,1504,1498,1102,1500,1897,1424,1100,1100,1100,1100,0,0,0,0
1787009841.8814,0.9001,0.02005,49.89,46,1369654,0.722,LOITER,GUIDED,128,nan,nan,nan,nan,nan,nan,0.07102994920382333,-1.3240178278321189,-7.71822714805603,0.0,0.0,0.0,-0.5525948689286255,0.4619274962979833,0.7831407607190972,-0.6553223526550761,-15.058535797623973,12.566870126589691,0.03224460076857649,0.38711780309677124,0,6.603071212768555,-6.746183395385742,2.260309934616089,-0.030582988634705544,0.019776970148086548,-0.007623801473528147,5,-8,-999,0,0,0,0.006057289894670248,0.02359124831855297,0.386852890253067,-0.0004879808984696865,63,3135,0.018622398376464844,23.777,2.42,98,4,18,1.0,831,0.004786144010722637,0.0006368739996105433,0.021503712981939316,1500,1500,1504,1498,1102,1500,1897,1424,1100,1100,1100,1100,0,0,0,0
1787009841.9014,0.9201,0.02007,49.83,47,1369674,0.742,LOITER,GUIDED,128,nan,nan,nan,nan,nan,nan,0.07102994920382333,-1.3240178278321189,-7.71822714805603,0.0,0.0,0.0,-0.5496261381833654,0.45948096250919085,0.7899171059045927,-0.6608186222160268,-15.061552851031717,12.57000869016846,0.032223291757928936,0.38711780309677124,0,6.601455211639404,-6.745020866394043,2.2605795860290527,-0.031175080686807632,0.019891422241926193,-0.007799406070262194,4,-7,-998,0,0,0,0.006060624960809946,0.02359108254313469,0.38686907291412354,0.0005940097034908831,63,3135,0.01865983009338379,23.777,2.42,98,4,18,1.0,831,0.004786144010722637,0.0006368739996105433,0.021503712981939316,1500,1500,1504,1498,1102,1500,1897,1424,1100,1100,1100,1100,0,0,0,0
1787009841.9203,0.9402,0.01886,53.02,48,1369694,0.761,LOITER,GUIDED,128,nan,nan,nan,nan,nan,nan,0.07102994920382333,-1.3240178278321189,-7.71822714805603,0.0,0.0,0.0,-0.5337379772857697,0.44618945063355886,0.8310564449045094,-0.6951678387002559,-15.114350189592937,12.615090043195764,0.0320452846391369,0.38711780309677124,0,6.5998992919921875,-6.743921756744385,2.2608067989349365,-0.03170858696103096,0.019912544637918472,-0.00783419981598854,4,-7,-999,0,0,0,0.006056319456547499,0.02358160726726055,0.38686618208885193,0.0002488962491042912,63,3135,0.0182497501373291,23.777,2.42,98,4,18,1.0,831,0.004786144010722637,0.0006368739996105433,0.021503712981939316,1500,1500,1504,1498,1102,1500,1897,1424,1100,1100,1100,1100,0,0,0,0
1787009841.9406,0.9602,0.02031,49.23,49,1369714,0.781,LOITER,GUIDED,128,nan,nan,nan,nan,nan,nan,0.07102994920382333,-1.3240178278321189,-7.71822714805603,0.0,0.0,0.0,-0.5334841527825049,0.4459546293157633,0.8277012044278321,-0.6923666730472217,-15.09461589364325,12.598820740394414,0.031946818770244446,0.38711780309677124,0,6.598833084106445,-6.743202209472656,2.260920524597168,-0.03190019726753235,0.019974159076809883,-0.007844990119338036,4,-7,-1000,0,0,0,0.006048775743693113,0.0235898420214653,0.3868524730205536,-0.0005548110348172486,63,3135,0.019364595413208008,23.777,2.42,98,4,18,1.0,831,0.004786144010722637,0.0006368739996105433,0.021503712981939316,1500,1500,1504,1498,1102,1500,1897,1424,1100,1100,1100,1100,0,0,0,0
1787009841.9611,0.9802,0.02049,48.81,50,1369734,0.802,LOITER,GUIDED,128,nan,nan,nan,nan,nan,nan,0.07102994920382333,-1.3240178278321189,-7.71822714805603,0.0,0.0,0.0,-0.5168987675252281,0.4320810624411987,0.8684344173904449,-0.7263782565790525,-15.139778918433352,12.637686698719143,0.031422460231861654,0.38711780309677124,0,6.597362995147705,-6.742198944091797,2.261263132095337,-0.03228398412466049,0.019817737862467766,-0.00771647272631526,3,-7,-999,0,0,0,0.006043154280632734,0.023580046370625496,0.38685089349746704,-8.031699690036476e-05,63,3135,0.019132375717163086,23.777,2.42,98,4,18,1.0,831,0.004786144010722637,0.0006368739996105433,0.021503712981939316,1500,1500,1504,1498,1102,1500,1897,1424,1100,1100,1100,1100,0,0,0,0
1787009841.9808,1.0001,0.01967,50.84,51,1369754,0.821,LOITER,GUIDED,128,nan,nan,nan,nan,nan,nan,0.07102994920382333,-1.3240178278321189,-7.71822714805603,0.0,0.0,0.0,-0.5194262239942525,0.4342116053581373,0.8558206421910365,-0.7157343537742966,-15.10072472747719,12.604655625022408,0.030908648460567664,0.38711780309677124,0,6.596330642700195,-6.741522789001465,2.261345148086548,-0.03240317478775978,0.02002239041030407,-0.007411147002130747,4,-6,-1000,0,0,0,0.006041811313480139,0.023598000407218933,0.3868412375450134,-0.0005212767282500863,63,3135,0.018525123596191406,23.777,2.42,98,4,18,1.0,831,0.004786144010722637,0.0006368739996105433,0.021503712981939316,1500,1500,1504,1498,1102,1500,1897,1424,1100,1100,1100,1100,0,0,0,0
1787009842.0008,1.0202,0.02004,49.90,52,1369774,0.842,LOITER,GUIDED,128,nan,nan,nan,nan,nan,nan,0.07102994920382333,-1.3240178278321189,-7.71822714805603,0.0,0.0,0.0,-0.5212805927035521,0.43575437646043114,0.8458898355817914,-0.7074043193587741,-15.067742625845508,12.576736811111203,0.0304765531062004,0.38711780309677124,0,6.594939708709717,-6.740599155426025,2.2616281509399414,-0.03268808871507645,0.020420478656888008,-0.007305722683668137,4,-6,-1000,0,0,0,0.006048872601240873,0.02359730377793312,0.3868374526500702,-0.0001313957036472857,63,3135,0.019249439239501953,23.777,2.42,98,4,18,1.0,831,0.004786144010722637,0.0006368739996105433,0.021503712981939316,1500,1500,1504,1498,1102,1500,1897,1424,1100,1100,1100,1100,0,0,0,0
1787009842.0206,1.0402,0.01981,50.48,53,1369794,0.861,LOITER,GUIDED,128,nan,nan,nan,nan,nan,nan,0.07102994920382333,-1.3240178278321189,-7.71822714805603,0.0,0.0,0.0,-0.5227231291114782,0.43698443456995995,0.8377443280782382,-0.7004839630823548,-15.040081997733944,12.553271066479823,0.030366896209214303,0.38711780309677124,0,6.593608856201172,-6.739732265472412,2.2618749141693115,-0.03280830383300781,0.020633915439248085,-0.007402671501040459,4,-6,-1000,0,0,0,0.006041728425770998,0.023603830486536026,0.3868296146392822,0.00014439054939430207,63,3135,0.01884150505065918,23.777,2.42,98,4,18,1.0,831,0.004786144010722637,0.0006368739996105433,0.021503712981939316,1500,1500,1504,1498,1102,1500,1897,1424,1100,1100,1100,1100,0,0,0,0
1787009842.0403,1.0601,0.01968,50.81,54,1369814,0.881,LOITER,GUIDED,128,nan,nan,nan,nan,nan,nan,0.07102994920382333,-1.3240178278321189,-7.71822714805603,0.0,0.0,0.0,-0.5060671267657321,0.4230574378226091,0.8778422643657137,-0.7339653656995767,-15.08190846958823,12.589347705026295,0.030593223123389045,0.38711780309677124,0,6.5926194190979,-6.739108085632324,2.261945962905884,-0.03326299786567688,0.020549602806568146,-0.007612947840243578,4,-8,-999,0,0,0,0.006038138642907143,0.023593928664922714,0.3868319094181061,0.00016066884563770145,63,3135,0.0190274715423584,23.777,2.42,98,4,18,1.0,831,0.004181914497166872,0.003372623585164547,0.03735481575131416,1500,1500,1504,1498,1102,1500,1897,1424,1100,1100,1100,1100,0,0,0,0
1787009842.0610,1.0808,0.02073,48.25,55,1369835,0.902,LOITER,GUIDED,128,nan,nan,nan,nan,nan,nan,0.07102994920382333,-1.3240178278321189,-7.71822714805603,0.0,0.0,0.0,-0.5097573095511126,0.42616225909799077,0.8621138146903854,-0.7207268082475503,-15.03791328744151,12.553400514156563,0.030183747425973143,0.38711780309677124,0,6.591457366943359,-6.738459587097168,2.262105941772461,-0.03348330780863762,0.020418718457221985,-0.0074365269392728806,4,-7,-1000,0,0,0,0.00604232819750905,0.023593515157699585,0.3868124485015869,-0.0005114521482028067,63,3135,0.019925832748413086,23.777,2.42,98,4,18,1.0,831,0.004181914497166872,0.003372623585164547,0.03735481575131416,1500,1500,1504,1498,1102,1500,1897,1424,1100,1100,1100,1100,0,0,0,0
1787009842.0809,1.1002,0.01992,50.19,56,1369854,0.922,LOITER,GUIDED,128,nan,nan,nan,nan,nan,nan,0.07102994920382333,-1.3240178278321189,-7.71822714805603,0.0,0.0,0.0,-0.5135230980754452,0.4293206932510725,0.8475881342010362,-0.7085278009073209,-15.001075923237623,12.52277403627585,0.03001226401481544,0.38711780309677124,0,6.590599060058594,-6.738015174865723,2.2620480060577393,-0.033511701971292496,0.020413296297192574,-0.0072743031196296215,4,-7,-1000,0,0,0,0.006035342812538147,0.023595277220010757,0.38680320978164673,-0.00038136442890390754,63,3135,0.01861095428466797,23.777,2.42,98,4,18,1.0,831,0.004181914497166872,0.003372623585164547,0.03735481575131416,1500,1500,1504,1498,1102,1500,1897,1424,1100,1100,1100,1100,0,0,0,0
1787009842.1007,1.1202,0.01976,50.62,57,1369874,0.941,LOITER,GUIDED,128,nan,nan,nan,nan,nan,nan,0.07102994920382333,-1.3240178278321189,-7.71822714805603,0.0,0.0,0.0,-0.5160919658146956,0.4315291124109829,0.8369207221258421,-0.6994248341405525,-14.971010193162657,12.498500265214922,0.02993200842550603,0.38711780309677124,0,6.589572429656982,-6.737548351287842,2.2620673179626465,-0.03389771282672882,0.020399276167154312,-0.007231209427118301,3,-8,-999,0,0,0,0.0060311309061944485,0.023596223443746567,0.38680681586265564,0.00047662999713793397,63,3135,0.01871323585510254,23.777,2.42,98,4,18,1.0,831,0.004181914497166872,0.003372623585164547,0.03735481575131416,1500,1500,1504,1498,1102,1500,1897,1424,1100,1100,1100,1100,0,0,0,0
1787009842.1204,1.1401,0.01975,50.63,58,1369894,0.961,LOITER,GUIDED,128,nan,nan,nan,nan,nan,nan,0.07102994920382333,-1.3240178278321189,-7.71822714805603,0.0,0.0,0.0,-0.5181021561156203,0.4332005043416998,0.8282798988918527,-0.6922102276126714,-14.946445049205051,12.478607050435407,0.029941280626706625,0.38711780309677124,0,6.58857536315918,-6.7371015548706055,2.2620744705200195,-0.033971454948186874,0.02033940516412258,-0.007242823485285044,3,-8,-999,0,0,0,0.006024688947945833,0.02361081726849079,0.3868109881877899,0.0002387708518654108,63,3135,0.018902301788330078,23.777,2.42,98,4,18,1.0,831,0.004181914497166872,0.003372623585164547,0.03735481575131416,1500,1500,1504,1498,1102,1500,1897,1424,1100,1100,1100,1100,0,0,0,0
1787009842.1404,1.1601,0.01998,50.04,59,1369914,0.981,LOITER,GUIDED,128,nan,nan,nan,nan,nan,nan,0.07102994920382333,-1.3240178278321189,-7.71822714805603,0.0,0.0,0.0,-0.5195598769756977,0.4344823441099627,0.8214636551697899,-0.6863333682522055,-14.92618362388106,12.462032383182269,0.029957337994338876,0.38711780309677124,0,6.58774471282959,-6.736684322357178,2.262160062789917,-0.033909741789102554,0.02013104036450386,-0.00731470063328743,2,-7,-999,0,0,0,0.006022296380251646,0.023607473820447922,0.3868131637573242,0.00029210737557150424,63,3135,0.019197940826416016,23.777,2.42,98,4,18,1.0,831,0.004181914497166872,0.003372623585164547,0.03735481575131416,1500,1500,1504,1498,1102,1500,1897,1424,1100,1100,1100,1100,0,0,0,0
1787009842.1605,1.1801,0.02007,49.82,60,1369934,0.001,LOITER,GUIDED,128,nan,nan,nan,nan,nan,nan,0.07102994920382333,-1.3240178278321189,-7.71822714805603,0.0,0.0,0.0,-0.520656107087946,0.4354473796057062,0.8158347714788912,-0.6814980063722406,-14.907989742608141,12.447723446258635,0.029679169770850573,0.38711780309677124,0,6.586766242980957,-6.736257076263428,2.2624406814575195,-0.03395014628767967,0.019875627011060715,-0.007316433358937502,2,-7,-999,0,0,0,0.006020466797053814,0.023605287075042725,0.3868183195590973,0.00027187741943635046,63,3135,0.01924443244934082,23.777,2.42,98,4,18,1.0,831,0.004181914497166872,0.003372623585164547,0.03735481575131416,1500,1500,1504,1498,1102,1500,1897,1424,1100,1100,1100,1100,0,0,0,0
1787009842.1813,1.2001,0.02081,48.05,61,1369954,0.022,LOITER,GUIDED,128,nan,nan,nan,nan,nan,nan,0.07102994920382333,-1.3240178278321189,-7.71822714805603,0.0,0.0,0.0,-0.5214746694075583,0.4361943439985596,0.8110745997669919,-0.6773612575321108,-14.891346354758985,12.434431361755415,0.0294747436937111,0.38711780309677124,0,6.585949420928955,-6.735851764678955,2.2624964714050293,-0.034113138914108276,0.01978837326169014,-0.007211331743746996,2,-8,-999,0,0,0,0.006023154594004154,0.023614704608917236,0.3867931663990021,-0.0009111131657846272,63,3135,0.019944190979003906,23.78,2.21,98,4,16,1.25,831,0.004181914497166872,0.003372623585164547,0.03735481575131416,1500,1500,1504,1498,1102,1500,1897,1424,1100,1100,1100,1100,0,0,0,0
1787009842.2006,1.2201,0.01925,51.95,62,1369974,0.041,LOITER,GUIDED,128,nan,nan,nan,nan,nan,nan,0.07102994920382333,-1.3240178278321189,-7.71822714805603,0.0,0.0,0.0,-0.5220189687480743,0.43665593420741766,0.807092949294941,-0.674032669716161,-14.875604634978075,12.422300305313247,0.029127984595683148,0.38711780309677124,0,6.584994316101074,-6.735445022583008,2.262723207473755,-0.03437791392207146,0.01977001316845417,-0.007126462645828724,2,-8,-1000,0,0,0,0.006024201400578022,0.023604052141308784,0.3867829740047455,-0.0005980751011520624,63,3135,0.018327951431274414,23.78,2.21,98,4,16,1.25,831,0.004181914497166872,0.003372623585164547,0.03735481575131416,1500,1500,1504,1498,1102,1500,1897,1424,1100,1100,1100,1100,0,0,0,0
1787009842.2205,1.2401,0.01998,50.04,63,1369994,0.061,LOITER,GUIDED,128,nan,nan,nan,nan,nan,nan,0.07102994920382333,-1.3240178278321189,-7.71822714805603,0.0,0.0,0.0,-0.5224043370922739,0.4369620927044928,0.8035372017926267,-0.6711217963340252,-14.860213907860164,12.41113557490127,0.028741387702474766,0.38711780309677124,0,6.584052085876465,-6.735052108764648,2.2629172801971436,-0.034761447459459305,0.019612755626440048,-0.006990327499806881,1,-9,-999,0,0,0,0.006031290162354708,0.02360628731548786,0.38677990436553955,-8.137643453665078e-05,63,3135,0.019047975540161133,23.78,2.21,98,4,16,1.25,831,0.004181914497166872,0.003372623585164547,0.03735481575131416,1500,1500,1504,1498,1102,1500,1897,1424,1100,1100,1100,1100,0,0,0,0
1787009842.2408,1.2602,0.02030,49.27,64,1370014,0.081,LOITER,GUIDED,128,nan,nan,nan,nan,nan,nan,0.07102994920382333,-1.3240178278321189,-7.71822714805603,0.0,0.0,0.0,-0.5226132353380775,0.43715751177531936,0.8004136040264237,-0.6684750192131721,-14.845681300761317,12.399723780089602,0.029027490515424192,0.38711780309677124,0,6.583245754241943,-6.73466682434082,2.2628729343414307,-0.03505302965641022,0.019676847383379936,-0.0071612754836678505,2,-8,-999,0,0,0,0.006035612430423498,0.023615248501300812,0.3867878317832947,0.0004771048261318356,63,3135,0.019251585006713867,23.78,2.21,98,4,16,1.25,831,0.004780726507306099,0.005979032255709171,0.023331141099333763,1500,1500,1504,1498,1102,1500,1897,1424,1100,1100,1100,1100,0,0,0,0
1787009842.2607,1.2802,0.01985,50.37,65,1370035,0.101,LOITER,GUIDED,128,nan,nan,nan,nan,nan,nan,0.07102994920382333,-1.3240178278321189,-7.71822714805603,0.0,0.0,0.0,-0.5227408748858562,0.4372771077984855,0.797451590645574,-0.6659879562961728,-14.830664631788352,12.387159707008669,0.028515938181759258,0.38711780309677124,0,6.582050323486328,-6.733513832092285,2.263047695159912,-0.03540555015206337,0.0199379101395607,-0.006923127919435501,2,-8,-1000,0,0,0,0.00603269599378109,0.02362486906349659,0.3868052661418915,0.0007564708357676864,63,3135,0.018880605697631836,23.78,2.21,98,4,16,1.25,831,0.004780726507306099,0.005979032255709171,0.023331141099333763,1500,1500,1504,1498,1102,1500,1897,1424,1100,1100,1100,1100,0,0,0,0
1787009842.2807,1.3002,0.02000,50.01,66,1370054,0.121,LOITER,GUIDED,128,nan,nan,nan,nan,nan,nan,0.07102994920382333,-1.3240178278321189,-7.71822714805603,0.0,0.0,0.0,-0.5228015315897443,0.4373807841389774,0.7946081629972743,-0.6634937679130437,-14.815728779988603,12.374423421281394,0.028412656423965142,0.38711780309677124,0,6.580974578857422,-6.732377052307129,2.2631239891052246,-0.0357632115483284,0.02020481415092945,-0.006904044654220343,2,-8,-1000,0,0,0,0.006042732857167721,0.02362312562763691,0.38678422570228577,-0.0006052555399946868,63,3135,0.01903223991394043,23.78,2.21,98,4,16,1.25,831,0.004780726507306099,0.005979032255709171,0.023331141099333763,1500,1500,1504,1498,1102,1500,1897,1424,1100,1100,1100,1100,0,0,0,0
1787009842.3005,1.3202,0.01983,50.43,67,1370074,0.141,LOITER,GUIDED,128,nan,nan,nan,nan,nan,nan,0.07102994920382333,-1.3240178278321189,-7.71822714805603,0.0,0.0,0.0,-0.5227988390524702,0.43736135079469596,0.7918650593168655,-0.661278006255305,-14.800618977757622,12.361032879512578,0.02775555490860679,0.38711780309677124,0,6.579592227935791,-6.730608940124512,2.2633941173553467,-0.036032311618328094,0.020580202341079712,-0.006630413234233856,3,-8,-1000,0,0,0,0.006032922770828009,0.023610515519976616,0.38677752017974854,-0.0004216063243802637,63,3135,0.018957853317260742,23.78,2.21,98,4,16,1.25,831,0.004780726507306099,0.005979032255709171,0.023331141099333763,1500,1500,1504,1498,1102,1500,1897,1424,1100,1100,1100,1100,0,0,0,0
1787009842.3205,1.3402,0.01997,50.06,68,1370094,0.161,LOITER,GUIDED,128,nan,nan,nan,nan,nan,nan,0.07102994920382333,-1.3240178278321189,-7.71822714805603,0.0,0.0,0.0,-0.5227795127906016,0.43730090070509386,0.7891044081635226,-0.659114952576596,-14.785231102449313,12.347826119715704,0.027341808786959885,0.38711780309677124,0,6.578223705291748,-6.728933334350586,2.2636258602142334,-0.036326948553323746,0.02087189443409443,-0.006501717492938042,2,-8,-999,0,0,0,0.00603187782689929,0.02362038381397724,0.3867676556110382,-0.0003450148506090045,63,3135,0.019134044647216797,23.78,2.21,98,4,16,1.25,831,0.004780726507306099,0.005979032255709171,0.023331141099333763,1500,1500,1504,1498,1102,1500,1897,1424,1100,1100,1100,1100,0,0,0,0
1787009842.3405,1.3601,0.02004,49.90,69,1370114,0.181,LOITER,GUIDED,128,nan,nan,nan,nan,nan,nan,0.07102994920382333,-1.3240178278321189,-7.71822714805603,0.0,0.0,0.0,-0.5227342187040427,0.43729218066977293,0.7863652400877867,-0.6567624627957918,-14.770565244645764,12.334706236041661,0.027157603304772234,0.38711780309677124,0,6.577205657958984,-6.72792911529541,2.263749599456787,-0.03641531616449356,0.021221237257122993,-0.00645896140486002,3,-8,-999,0,0,0,0.006014223676174879,0.023617448285222054,0.38676998019218445,0.00020940619288012385,63,3135,0.019105911254882812,23.78,2.21,98,4,16,1.25,831,0.004780726507306099,0.005979032255709171,0.023331141099333763,1500,1500,1504,1498,1102,1500,1897,1424,1100,1100,1100,1100,0,0,0,0
1787009842.3604,1.3802,0.01982,50.45,70,1370134,0.201,LOITER,GUIDED,128,nan,nan,nan,nan,nan,nan,0.07102994920382333,-1.3240178278321189,-7.71822714805603,0.0,0.0,0.0,-0.52266815966477,0.43726800675918526,0.7836425881152771,-0.6544206897115818,-14.755231884827388,12.320592486872396,0.02680194413846681,0.38711780309677124,0,6.575911998748779,-6.726403713226318,2.264091968536377,-0.03662262111902237,0.021730924025177956,-0.006449563894420862,4,-8,-999,0,0,0,0.006014312617480755,0.02361099235713482,0.3867832124233246,0.0006083724438212812,63,3135,0.019078731536865234,23.78,2.21,98,4,16,1.25,831,0.004780726507306099,0.005979032255709171,0.023331141099333763,1500,1500,1504,1498,1102,1500,1897,1424,1100,1100,1100,1100,0,0,0,0
1787009842.3805,1.4002,0.02018,49.55,71,1370154,0.221,LOITER,GUIDED,128,nan,nan,nan,nan,nan,nan,0.07102994920382333,-1.3240178278321189,-7.71822714805603,0.0,0.0,0.0,-0.5226118173844325,0.43720404891890524,0.7808667013990255,-0.6521663226657906,-14.739694130685672,12.307768628981114,0.026486420060385936,0.38711780309677124,0,6.574920654296875,-6.725460052490234,2.2641868591308594,-0.03697027638554573,0.02197442576289177,-0.006293552462011576,3,-8,-1000,0,0,0,0.006008758209645748,0.023617351427674294,0.3867700397968292,-0.0003605700912885368,63,3135,0.0193173885345459,23.78,2.21,98,4,16,1.25,831,0.004780726507306099,0.005979032255709171,0.023331141099333763,1500,1500,1504,1498,1102,1500,1897,1424,1100,1100,1100,1100,0,0,0,0
1787009842.4005,1.4202,0.01996,50.10,72,1370174,0.241,LOITER,GUIDED,128,nan,nan,nan,nan,nan,nan,0.07102994920382333,-1.3240178278321189,-7.71822714805603,0.0,0.0,0.0,-0.5225987297056387,0.43720897743967546,0.7779723249303419,-0.6497201018520805,-14.724132971312756,12.294146246453991,0.026090172852847003,0.38711780309677124,0,6.573693752288818,-6.724069595336914,2.2644734382629395,-0.037154633551836014,0.02223709411919117,-0.006216005422174931,3,-7,-999,0,0,0,0.00599677162244916,0.023615755140781403,0.38676053285598755,-0.00036626093788072467,63,3135,0.01908588409423828,23.78,2.21,98,4,16,1.25,831,0.004780726507306099,0.005979032255709171,0.023331141099333763,1500,1500,1504,1498,1102,1500,1897,1424,1100,1100,1100,1100,0,0,0,0
1787009842.4205,1.4401,0.01997,50.07,73,1370194,0.261,LOITER,GUIDED,128,nan,nan,nan,nan,nan,nan,0.07102994920382333,-1.3240178278321189,-7.71822714805603,0.0,0.0,0.0,-0.52261345006144,0.4372182077935311,0.7750171760479491,-0.6472754653582494,-14.70882436190466,12.280479165258123,0.02594746821681678,0.38711780309677124,0,6.572490692138672,-6.722747325897217,2.2647202014923096,-0.03722613677382469,0.022565312683582306,-0.006289585959166288,4,-7,-999,0,0,0,0.006002767011523247,0.023607419803738594,0.3867667019367218,-2.500679693184793e-05,63,3135,0.01912212371826172,23.78,2.21,98,4,16,1.25,831,0.004780726507306099,0.005979032255709171,0.023331141099333763,1500,1500,1504,1498,1102,1500,1897,1424,1100,1100,1100,1100,0,0,0,0
1787009842.4407,1.4602,0.02019,49.53,74,1370214,0.281,LOITER,GUIDED,128,nan,nan,nan,nan,nan,nan,0.07102994920382333,-1.3240178278321189,-7.71822714805603,0.0,0.0,0.0,-0.5226357794170464,0.4372127474784022,0.772067400943483,-0.6448900115362527,-14.693779778354415,12.268090493892974,0.02575036929929425,0.38711780309677124,0,6.571537971496582,-6.721890449523926,2.264878988265991,-0.03733033686876297,0.022619953379034996,-0.006262495182454586,4,-7,-999,0,0,0,0.006010087206959724,0.023594876751303673,0.3867464065551758,-0.0006527428049594164,63,3135,0.019211292266845703,23.78,2.21,98,4,16,1.25,831,0.004125312902033329,0.003101338166743517,0.033086445182561874,1500,1500,1504,1498,1102,1500,1897,1424,1100,1100,1100,1100,0,0,0,0
1787009842.4605,1.4801,0.01982,50.45,75,1370235,0.301,LOITER,GUIDED,128,nan,nan,nan,nan,nan,nan,0.07102994920382333,-1.3240178278321189,-7.71822714805603,0.0,0.0,0.0,-0.5227460397673344,0.43729967558378763,0.768939495455975,-0.6422993377294913,-14.679358776042623,12.254093645041735,0.025439185324810962,0.38711780309677124,0,6.5708231925964355,-6.72047758102417,2.265075922012329,-0.03724505007266998,0.023043159395456314,-0.006181708071380854,4,-7,-1000,0,0,0,0.006020028609782457,0.02359466627240181,0.38676559925079346,0.0005623645847663283,63,3135,0.018941402435302734,23.78,2.21,98,4,16,1.25,831,0.004125312902033329,0.003101338166743517,0.033086445182561874,1500,1500,1504,1498,1102,1500,1897,1424,1100,1100,1100,1100,0,0,0,0
1787009842.4804,1.5002,0.01996,50.09,76,1370254,0.321,LOITER,GUIDED,128,nan,nan,nan,nan,nan,nan,0.07102994920382333,-1.3240178278321189,-7.71822714805603,0.0,0.0,0.0,-0.5228786088859813,0.4373753471267228,0.7658176564826796,-0.6397908683996344,-14.665769669277354,12.242073988957682,0.0255250618749922,0.38711780309677124,0,6.570343017578125,-6.71949577331543,2.2650046348571777,-0.03700592368841171,0.022947221994400024,-0.006192024331539869,3,-6,-999,0,0,0,0.006019898224622011,0.023577487096190453,0.3867568075656891,-8.86204288690351e-05,63,3135,0.019141197204589844,23.78,2.21,98,4,16,1.25,831,0.004125312902033329,0.003101338166743517,0.033086445182561874,1500,1500,1504,1498,1102,1500,1897,1424,1100,1100,1100,1100,0,0,0,0
1787009842.5004,1.5201,0.01992,50.20,77,1370274,0.341,LOITER,GUIDED,128,nan,nan,nan,nan,nan,nan,0.07102994920382333,-1.3240178278321189,-7.71822714805603,0.0,0.0,0.0,-0.5230577824895493,0.4375304577820568,0.762662615425599,-0.6371355460066604,-14.652716628347846,12.22856931515598,0.025654112606965998,0.38711780309677124,0,6.570051670074463,-6.718031406402588,2.264970302581787,-0.03672780469059944,0.023266959935426712,-0.0062590003944933414,3,-7,-1000,0,0,0,0.006018913350999355,0.02357867918908596,0.38675549626350403,-6.926730566192418e-05,63,3135,0.01915287971496582,23.78,2.21,98,4,16,1.25,831,0.004125312902033329,0.003101338166743517,0.033086445182561874,1500,1500,1504,1498,1102,1500,1897,1424,1100,1100,1100,1100,0,0,0,0
1787009842.5205,1.5401,0.02016,49.60,78,1370294,0.361,LOITER,GUIDED,128,nan,nan,nan,nan,nan,nan,0.07102994920382333,-1.3240178278321189,-7.71822714805603,0.0,0.0,0.0,-0.5232289661541102,0.4376950590085032,0.7596311565637246,-0.6345347533629577,-14.639586088377143,12.215034417625192,0.025651221468993693,0.38711780309677124,0,6.56974983215332,-6.716660976409912,2.2649283409118652,-0.03669167309999466,0.02378014288842678,-0.006227284669876099,4,-8,-1000,0,0,0,0.006016964558511972,0.023572860285639763,0.3867603838443756,8.174458344001323e-05,63,3135,0.019301176071166992,23.78,2.21,98,4,16,1.25,831,0.004125312902033329,0.003101338166743517,0.033086445182561874,1500,1500,1504,1498,1102,1500,1897,1424,1100,1100,1100,1100,0,0,0,0
1787009842.5402,1.5601,0.01971,50.74,79,1370314,0.381,LOITER,GUIDED,128,nan,nan,nan,nan,nan,nan,0.07102994920382333,-1.3240178278321189,-7.71822714805603,0.0,0.0,0.0,-0.5080381686134601,0.42500588889277685,0.7991713292210896,-0.6675484317577646,-14.693341190473435,12.25894729820311,0.02571647224877842,0.38711780309677124,0,6.5692243576049805,-6.715767860412598,2.264864683151245,-0.036651164293289185,0.023938464000821114,-0.006228411104530096,4,-7,-999,0,0,0,0.006023246794939041,0.023561429232358932,0.3867461085319519,-0.0004236604436300695,63,3135,0.01915454864501953,23.78,2.21,98,4,16,1.25,831,0.004125312902033329,0.003101338166743517,0.033086445182561874,1500,1500,1504,1498,1102,1500,1897,1424,1100,1100,1100,1100,0,0,0,0
1787009842.5606,1.5802,0.02031,49.23,80,1370334,0.401,LOITER,GUIDED,128,nan,nan,nan,nan,nan,nan,0.07102994920382333,-1.3240178278321189,-7.71822714805603,0.0,0.0,0.0,-0.5108874562697856,0.4273472978934993,0.7867446730524744,-0.6572644235050754,-14.659658644495861,12.228990975937274,0.02559084904058784,0.38711780309677124,0,6.568869590759277,-6.7144975662231445,2.2648515701293945,-0.03637084364891052,0.02410316839814186,-0.006130309775471687,4,-6,-1000,0,0,0,0.006029813084751368,0.023551207035779953,0.3867465853691101,0.0001237764663528651,63,3135,0.019492149353027344,23.78,2.21,98,4,16,1.25,831,0.004125312902033329,0.003101338166743517,0.033086445182561874,1500,1500,1504,1498,1102,1500,1897,1424,1100,1100,1100,1100,0,0,0,0
1787009842.5800,1.6001,0.01949,51.31,81,1370354,0.421,LOITER,GUIDED,128,nan,nan,nan,nan,nan,nan,0.07102994920382333,-1.3240178278321189,-7.71822714805603,0.0,0.0,0.0,-0.5135116187830228,0.4295105116745657,0.7758652828927133,-0.6482356619685684,-14.63076653077499,12.204148957712228,0.02581861495738178,0.38711780309677124,0,6.568326950073242,-6.713652610778809,2.264780044555664,-0.03625573217868805,0.024148976430296898,-0.006240788381546736,4,-7,-999,0,0,0,0.0060400208458304405,0.023563910275697708,0.3867453932762146,1.6623700503259897e-05,63,3135,0.018872737884521484,23.78,2.21,98,4,16,1.25,831,0.004125312902033329,0.003101338166743517,0.033086445182561874,1500,1500,1504,1498,1102,1500,1897,1424,1100,1100,1100,1100,0,0,0,0
1787009842.6000,1.6201,0.02000,50.01,82,1370374,0.441,LOITER,GUIDED,128,nan,nan,nan,nan,nan,nan,0.07102994920382333,-1.3240178278321189,-7.71822714805603,0.0,0.0,0.0,-0.5158046282088904,0.4314167822368209,0.7666339650060148,-0.6405241857038132,-14.606626485590168,12.183148743164475,0.02605701307910631,0.38711780309677124,0,6.567934036254883,-6.712475776672363,2.2647454738616943,-0.03627294301986694,0.024123894050717354,-0.006384916137903929,3,-8,-998,0,0,0,0.006046866532415152,0.02356240525841713,0.386738657951355,3.270371234975755e-05,63,3135,0.01936507225036621,23.78,2.21,98,4,16,1.25,831,0.004125312902033329,0.003101338166743517,0.033086445182561874,1500,1500,1504,1498,1102,1500,1897,1424,1100,1100,1100,1100,0,0,0,0
1787009842.6201,1.6402,0.02003,49.92,83,1370394,0.461,LOITER,GUIDED,128,nan,nan,nan,nan,nan,nan,0.07102994920382333,-1.3240178278321189,-7.71822714805603,0.0,0.0,0.0,-0.5177844452761624,0.4330919411928611,0.7588651083726609,-0.6339492169633252,-14.58689323810936,12.164406216089157,0.026205967794831454,0.38711780309677124,0,6.567516803741455,-6.711357116699219,2.264697551727295,-0.03619331866502762,0.024583283811807632,-0.0064563569612801075,4,-8,-999,0,0,0,0.006043510977178812,0.023555012419819832,0.3867495656013489,0.00013918342301622033,63,3135,0.019389867782592773,23.78,2.21,98,4,16,1.25,831,0.004125312902033329,0.003101338166743517,0.033086445182561874,1500,1500,1504,1498,1102,1500,1897,1424,1100,1100,1100,1100,0,0,0,0
1787009842.6402,1.6601,0.02008,49.80,84,1370414,0.481,LOITER,GUIDED,128,nan,nan,nan,nan,nan,nan,0.07102994920382333,-1.3240178278321189,-7.71822714805603,0.0,0.0,0.0,-0.5195823856316236,0.43452657284222274,0.7520935030830794,-0.6284484651712178,-14.569540308894995,12.14969506903896,0.02624864398529831,0.38711780309677124,0,6.566944122314453,-6.710576057434082,2.2646124362945557,-0.03636442869901657,0.024751579388976097,-0.0064263478852808475,4,-8,-1000,0,0,0,0.006048297043889761,0.023549560457468033,0.3867436349391937,0.00015943021571729332,63,3135,0.019360065460205078,23.78,2.21,98,4,16,1.25,831,0.004116916563361883,0.0008833897882141173,0.028839096426963806,1500,1500,1504,1498,1102,1500,1897,1424,1100,1100,1100,1100,0,0,0,0
1787009842.6601,1.6802,0.01998,50.06,85,1370435,0.501,LOITER,GUIDED,128,nan,nan,nan,nan,nan,nan,0.07102994920382333,-1.3240178278321189,-7.71822714805603,0.0,0.0,0.0,-0.5211691491664745,0.43577723022148845,0.7463042126662376,-0.6237782739530358,-14.555253058974884,12.13436396465689,0.026370431487899307,0.38711780309677124,0,6.566340923309326,-6.708362579345703,2.2645609378814697,-0.036417920142412186,0.025547925382852554,-0.006476049777120352,4,-8,-999,0,0,0,0.006052294280380011,0.023540999740362167,0.3867502510547638,0.0003376754466444254,63,3135,0.01928853988647461,23.78,2.21,98,4,16,1.25,831,0.004116916563361883,0.0008833897882141173,0.028839096426963806,1500,1500,1504,1498,1102,1500,1897,1424,1100,1100,1100,1100,0,0,0,0
1787009842.6808,1.7002,0.02070,48.30,86,1370454,0.521,LOITER,GUIDED,128,nan,nan,nan,nan,nan,nan,0.07102994920382333,-1.3240178278321189,-7.71822714805603,0.0,0.0,0.0,-0.5225007973995955,0.4368703684657498,0.7415391770862039,-0.61979537191419,-14.54344014523864,12.12225678226565,0.026636176135687382,0.38711780309677124,0,6.5656046867370605,-6.706483364105225,2.2644665241241455,-0.03647833317518234,0.02592691220343113,-0.006597199011594057,2,-8,-999,0,0,0,0.0060564070008695126,0.023525547236204147,0.3867540955543518,0.00044350221287459135,63,3135,0.019826173782348633,23.776,2.24,98,4,16,1.25,831,0.004116916563361883,0.0008833897882141173,0.028839096426963806,1500,1500,1504,1498,1102,1500,1897,1424,1100,1100,1100,1100,0,0,0,0
1787009842.7001,1.7201,0.01930,51.81,87,1370474,0.541,LOITER,GUIDED,128,nan,nan,nan,nan,nan,nan,0.07102994920382333,-1.3240178278321189,-7.71822714805603,0.0,0.0,0.0,-0.5237713960929083,0.43791725742068643,0.7372020394815935,-0.6161526383225233,-14.533055541196974,12.109170901408026,0.026645966807455006,0.38711780309677124,0,6.564846038818359,-6.703375339508057,2.2643978595733643,-0.036558233201503754,0.026703566312789917,-0.006555568892508745,3,-8,-1000,0,0,0,0.006070283707231283,0.023514213040471077,0.38674837350845337,-0.0002767787082120776,63,3135,0.018581390380859375,23.776,2.24,98,4,16,1.25,831,0.004116916563361883,0.0008833897882141173,0.028839096426963806,1500,1500,1505,1498,1102,1500,1897,1424,1100,1100,1100,1100,0,0,0,0
1787009842.7201,1.7401,0.02001,49.98,88,1370494,0.561,LOITER,GUIDED,128,nan,nan,nan,nan,nan,nan,0.07102994920382333,-1.3240178278321189,-7.71822714805603,0.0,0.0,0.0,-0.5248440171098075,0.4388064222348095,0.733617554352912,-0.6131096015005065,-14.524541713437662,12.096868260583774,0.026515543631711755,0.38711780309677124,0,6.564104080200195,-6.700466632843018,2.2643215656280518,-0.03663046285510063,0.027843963354825974,-0.006409397814422846,4,-8,-1000,0,0,0,0.006068757269531488,0.023504117503762245,0.3867407739162445,-7.435273437295109e-05,63,3135,0.019364356994628906,23.776,2.24,98,4,16,1.25,831,0.004116916563361883,0.0008833897882141173,0.028839096426963806,1500,1500,1505,1498,1102,1500,1897,1424,1100,1100,1100,1100,0,0,0,0
1787009842.7403,1.7605,0.02021,49.48,89,1370514,0.581,LOITER,GUIDED,128,nan,nan,nan,nan,nan,nan,0.07102994920382333,-1.3240178278321189,-7.71822714805603,0.0,0.0,0.0,-0.5255921474817955,0.4393734105723641,0.7310744520170805,-0.6110659777057178,-14.518242066273475,12.089356293483444,0.026409353103458995,0.38711780309677124,0,6.563360691070557,-6.698788642883301,2.264188051223755,-0.03665224835276604,0.028303250670433044,-0.006239900831133127,3,-7,-1000,0,0,0,0.006081916857510805,0.023500284180045128,0.38674139976501465,-3.1839663279242814e-05,63,3135,0.019636154174804688,23.776,2.24,98,4,16,1.25,831,0.004116916563361883,0.0008833897882141173,0.028839096426963806,1500,1500,1505,1498,1102,1500,1897,1424,1100,1100,1100,1100,0,0,0,0
1787009842.7610,1.7802,0.02068,48.35,90,1370534,0.602,LOITER,GUIDED,128,nan,nan,nan,nan,nan,nan,0.07102994920382333,-1.3240178278321189,-7.71822714805603,0.0,0.0,0.0,-0.526628553627838,0.4401685459128973,0.7278602163047321,-0.6084888476013626,-14.511131848273394,12.079082022993799,0.026843330444226737,0.38711780309677124,0,6.562623023986816,-6.696127891540527,2.2640480995178223,-0.036742351949214935,0.029281139373779297,-0.006447808351367712,4,-8,-999,0,0,0,0.006075107026845217,0.023486945778131485,0.386740118265152,0.00011298360186628997,63,3135,0.019388437271118164,23.776,2.24,98,4,16,1.25,831,0.004116916563361883,0.0008833897882141173,0.028839096426963806,1500,1500,1505,1498,1102,1500,1897,1424,1100,1100,1100,1100,0,0,0,0
1787009842.7808,1.8001,0.01980,50.51,91,1370554,0.621,LOITER,GUIDED,128,nan,nan,nan,nan,nan,nan,0.07102994920382333,-1.3240178278321189,-7.71822714805603,0.0,0.0,0.0,-0.5273307381075713,0.4407912774844439,0.7256816457273412,-0.6064693744006991,-14.506420126281455,12.072395580772273,0.02706939788703147,0.38711780309677124,0,6.5618791580200195,-6.694554328918457,2.2639095783233643,-0.03665696084499359,0.029693016782402992,-0.006509712897241116,3,-7,-999,0,0,0,0.00607578968629241,0.023470811545848846,0.386738657951355,-0.00011208200157852843,63,3135,0.01867508888244629,23.776,2.24,98,4,16,1.25,831,0.004116916563361883,0.0008833897882141173,0.028839096426963806,1500,1500,1505,1498,1102,1500,1897,1424,1100,1100,1100,1100,0,0,0,0
1787009842.8005,1.8201,0.01970,50.77,92,1370574,0.641,LOITER,GUIDED,128,nan,nan,nan,nan,nan,nan,0.07102994920382333,-1.3240178278321189,-7.71822714805603,0.0,0.0,0.0,-0.5279447060321409,0.44135953152764523,0.7238136581472082,-0.6046627029492826,-14.502385852432013,12.065278859168423,0.027481908757944346,0.38711780309677124,0,6.56114387512207,-6.692114353179932,2.2637624740600586,-0.03658442944288254,0.030144652351737022,-0.006697383709251881,2,-7,-998,0,0,0,0.006067805457860231,0.023463502526283264,0.38672077655792236,-0.0006501181633211672,63,3135,0.01879429817199707,23.776,2.24,98,4,16,1.25,831,0.004116916563361883,0.0008833897882141173,0.028839096426963806,1500,1500,1505,1498,1102,1500,1897,1424,1100,1100,1100,1100,0,0,0,0
1787009842.8206,1.8401,0.02004,49.90,93,1370594,0.661,LOITER,GUIDED,128,nan,nan,nan,nan,nan,nan,0.07102994920382333,-1.3240178278321189,-7.71822714805603,0.0,0.0,0.0,-0.5285116570441415,0.4417981885214317,0.7221261539500416,-0.6032600157011072,-14.497984397614587,12.058244226600957,0.02775599547611414,0.38711780309677124,0,6.560398578643799,-6.6898040771484375,2.2636098861694336,-0.036843594163656235,0.030938617885112762,-0.006783296354115009,3,-8,-999,0,0,0,0.006056331563740969,0.023476283997297287,0.38672468066215515,-4.1667124605737627e-05,63,3135,0.019130706787109375,23.776,2.24,98,4,16,1.25,831,0.004116916563361883,0.0008833897882141173,0.028839096426963806,1500,1500,1505,1499,1102,1500,1897,1424,1100,1100,1100,1100,0,0,0,0
1787009842.8405,1.8602,0.01996,50.10,94,1370614,0.681,LOITER,GUIDED,128,nan,nan,nan,nan,nan,nan,0.07102994920382333,-1.3240178278321189,-7.71822714805603,0.0,0.0,0.0,-0.5289671146887959,0.4422047630786476,0.7207842565164628,-0.6019715431215985,-14.49444122451239,12.053266972908594,0.0278053044607803,0.38711780309677124,0,6.55966329574585,-6.688390731811523,2.263420581817627,-0.03702537342905998,0.03136010468006134,-0.006684304680675268,3,-8,-1000,0,0,0,0.006045319605618715,0.023468855768442154,0.38672539591789246,0.0003230830479878932,63,3135,0.019084453582763672,23.776,2.24,98,4,16,1.25,831,0.0054356008768081665,0.0010691321222111583,0.04154634475708008,1500,1500,1505,1499,1102,1500,1897,1424,1100,1100,1100,1100,0,0,0,0
1787009842.8605,1.8801,0.01995,50.13,95,1370635,0.701,LOITER,GUIDED,128,nan,nan,nan,nan,nan,nan,0.07102994920382333,-1.3240178278321189,-7.71822714805603,0.0,0.0,0.0,-0.5294089168445074,0.4425558492115774,0.7195028754468262,-0.6008598694206863,-14.491713891847192,12.046993541717251,0.027945087779946004,0.38711780309677124,0,6.559355735778809,-6.685997009277344,2.263371229171753,-0.037115853279829025,0.0320579819381237,-0.00674824882298708,3,-9,-1000,0,0,0,0.0060437521897256374,0.02346164919435978,0.38673147559165955,0.0002010470489040017,63,3135,0.01908254623413086,23.776,2.24,98,4,16,1.25,831,0.0054356008768081665,0.0010691321222111583,0.04154634475708008,1500,1500,1505,1499,1102,1500,1897,1424,1100,1100,1100,1100,0,0,0,0
1787009842.8805,1.9001,0.02006,49.86,96,1370654,0.721,LOITER,GUIDED,128,nan,nan,nan,nan,nan,nan,0.07102994920382333,-1.3240178278321189,-7.71822714805603,0.0,0.0,0.0,-0.5298089485673808,0.4428884522340228,0.7183586872101658,-0.5998120637847395,-14.48964261922514,12.041955138265191,0.027957702432804328,0.38711780309677124,0,6.5590128898620605,-6.6843767166137695,2.2633628845214844,-0.037037916481494904,0.03262312337756157,-0.006751268170773983,4,-8,-999,0,0,0,0.006056159269064665,0.023466944694519043,0.38671377301216125,-0.00025881908368319273,63,3135,0.019107580184936523,23.776,2.24,98,4,16,1.25,831,0.0054356008768081665,0.0010691321222111583,0.04154634475708008,1500,1500,1505,1500,1102,1500,1897,1424,1100,1100,1100,1100,0,0,0,0
1787009842.9006,1.9202,0.02005,49.87,97,1370674,0.741,LOITER,GUIDED,128,nan,nan,nan,nan,nan,nan,0.07102994920382333,-1.3240178278321189,-7.71822714805603,0.0,0.0,0.0,-0.5300687439853062,0.4431298059011628,0.7176185638371162,-0.5990284490429416,-14.490240257921483,12.03739848566039,0.027956536038295288,0.38711780309677124,0,6.559062480926514,-6.681920051574707,2.2634687423706055,-0.03630165383219719,0.03282993659377098,-0.0068252962082624435,2,-6,-999,0,0,0,0.0060701570473611355,0.02345089800655842,0.3867155611515045,-0.0001952990860445425,63,3135,0.019124984741210938,23.776,2.24,98,4,16,1.25,831,0.0054356008768081665,0.0010691321222111583,0.04154634475708008,1500,1500,1505,1500,1102,1500,1897,1424,1100,1100,1100,1100,0,0,0,0
1787009842.9205,1.9401,0.01990,50.24,98,1370694,0.761,LOITER,GUIDED,128,nan,nan,nan,nan,nan,nan,0.07102994920382333,-1.3240178278321189,-7.71822714805603,0.0,0.0,0.0,-0.5304233610656234,0.44342529865186725,0.7166220112515784,-0.5980994322161073,-14.488893788347808,12.031628192524698,0.027653391414417527,0.38711780309677124,0,6.559049129486084,-6.679590225219727,2.263550043106079,-0.03618510067462921,0.033502835780382156,-0.006668428890407085,3,-8,-1000,0,0,0,0.00607222830876708,0.023431723937392235,0.38670673966407776,-9.738212975207716e-05,63,3135,0.019008159637451172,23.776,2.24,98,4,16,1.25,831,0.0054356008768081665,0.0010691321222111583,0.04154634475708008,1500,1500,1505,1500,1102,1500,1897,1424,1100,1100,1100,1100,0,0,0,0
1787009842.9404,1.9601,0.01995,50.12,99,1370714,0.781,LOITER,GUIDED,128,nan,nan,nan,nan,nan,nan,0.07102994920382333,-1.3240178278321189,-7.71822714805603,0.0,0.0,0.0,-0.5307181275062115,0.4436366323460071,0.7158091970092315,-0.5974136018937773,-14.48779131496893,12.028179963300465,0.027728161105237945,0.38711780309677124,0,6.558670997619629,-6.678143501281738,2.2633910179138184,-0.035959985107183456,0.03375190123915672,-0.006608851253986359,3,-7,-1000,0,0,0,0.0060811820439994335,0.023421723395586014,0.3867168724536896,0.00016055563173722476,63,3135,0.0191042423248291,23.776,2.24,98,4,16,1.25,831,0.0054356008768081665,0.0010691321222111583,0.04154634475708008,1500,1500,1505,1500,1102,1500,1897,1424,1100,1100,1100,1100,0,0,0,0
1787009842.9605,1.9801,0.02001,49.96,100,1370734,0.801,LOITER,GUIDED,128,nan,nan,nan,nan,nan,nan,0.07102994920382333,-1.3240178278321189,-7.71822714805603,0.0,0.0,0.0,-0.5309772813638001,0.44382194849767,0.7151071732786956,-0.5968047222333547,-14.486996372631975,12.023125530399813,0.028031833029845486,0.38711780309677124,0,6.558598041534424,-6.6760029792785645,2.263206720352173,-0.03582211211323738,0.0344352163374424,-0.0066932616755366325,3,-8,-999,0,0,0,0.00607449421659112,0.023397395387291908,0.3866989016532898,-0.0002326170215383172,63,3135,0.019161462783813477,23.776,2.24,98,4,16,1.25,831,0.0054356008768081665,0.0010691321222111583,0.04154634475708008,1500,1500,1505,1500,1102,1500,1897,1424,1100,1100,1100,1100,0,0,0,0
1787009842.9805,2.0001,0.02000,50.00,101,1370754,0.821,LOITER,GUIDED,128,nan,nan,nan,nan,nan,nan,0.07102994920382333,-1.3240178278321189,-7.71822714805603,0.0,0.0,0.0,-0.5312152213160715,0.44405322108091744,0.7144740974260317,-0.5960702613703162,-14.485623032917154,12.019312001096964,0.028121689418668133,0.38711780309677124,0,6.5581793785095215,-6.674622058868408,2.2630467414855957,-0.03583891689777374,0.03483972325921059,-0.006643677596002817,3,-7,-1000,0,0,0,0.006072248797863722,0.02339475229382515,0.386698842048645,-0.0003607235266827047,63,3135,0.019139766693115234,23.776,2.24,98,4,16,1.25,831,0.0054356008768081665,0.0010691321222111583,0.04154634475708008,1500,1500,1505,1500,1102,1500,1897,1424,1100,1100,1100,1100,0,0,0,0
1787009843.0004,2.0201,0.01998,50.05,102,1370774,0.841,LOITER,GUIDED,128,nan,nan,nan,nan,nan,nan,0.07102994920382333,-1.3240178278321189,-7.71822714805603,0.0,0.0,0.0,-0.531462359427202,0.4442469646598702,0.7138241703167356,-0.5954530561168787,-14.48531387277663,12.015844809677809,0.028265052079299347,0.38711780309677124,0,6.558043956756592,-6.6726460456848145,2.262866497039795,-0.035532865673303604,0.03494851291179657,-0.006617598235607147,2,-7,-999,0,0,0,0.006075460929423571,0.023381663486361504,0.3866826295852661,-0.0004305047041270882,63,3135,0.019101858139038086,23.776,2.24,98,4,16,1.25,831,0.0054356008768081665,0.0010691321222111583,0.04154634475708008,1500,1500,1505,1500,1102,1500,1897,1424,1100,1100,1100,1100,0,0,0,0
1787009843.0203,2.0402,0.01983,50.42,103,1370794,0.861,LOITER,GUIDED,128,nan,nan,nan,nan,nan,nan,0.07102994920382333,-1.3240178278321189,-7.71822714805603,0.0,0.0,0.0,-0.5171140699014396,0.43227800479069955,0.7534202484154668,-0.6283655821591354,-14.547680452409715,12.06479667691101,0.02824580735935886,0.38711780309677124,0,6.557861328125,-6.670762062072754,2.262688398361206,-0.035255588591098785,0.03504091873764992,-0.006478055380284786,3,-7,-1000,0,0,0,0.006066175643354654,0.023369161412119865,0.38667404651641846,-0.0005425647832453251,63,3135,0.01920008659362793,23.776,2.24,98,4,16,1.25,831,0.0054356008768081665,0.0010691321222111583,0.04154634475708008,1500,1500,1505,1500,1102,1500,1897,1424,1100,1100,1100,1100,0,0,0,0
1787009843.0412,2.0607,0.02093,47.78,104,1370814,0.882,LOITER,GUIDED,128,nan,nan,nan,nan,nan,nan,0.07102994920382333,-1.3240178278321189,-7.71822714805603,0.0,0.0,0.0,-0.5194398326844569,0.4342303861422668,0.7449529039391278,-0.6211546707545019,-14.527904378102832,12.045903821103236,0.02823061661418877,0.38711780309677124,0,6.557401657104492,-6.669500827789307,2.2625536918640137,-0.03506321460008621,0.03526292368769646,-0.006372062023729086,3,-7,-1000,0,0,0,0.006054376717656851,0.023359697312116623,0.38666483759880066,-0.00024785392452031374,63,3135,0.020056486129760742,23.776,2.24,98,4,16,1.25,831,0.006054098717868328,0.004685118794441223,0.024661941453814507,1500,1500,1505,1500,1102,1500,1897,1424,1100,1100,1100,1100,0,0,0,0
1787009843.0605,2.0801,0.01929,51.85,105,1370835,0.901,LOITER,GUIDED,128,nan,nan,nan,nan,nan,nan,0.07102994920382333,-1.3240178278321189,-7.71822714805603,0.0,0.0,0.0,-0.5221526484065812,0.43645492170074734,0.7361980403986981,-0.6138520301803568,-14.510485909635193,12.028207758356531,0.029937729459586154,0.38711780309677124,0,6.557697772979736,-6.667945861816406,2.261362075805664,-0.03505446016788483,0.03568081557750702,-0.006736573297530413,4,-9,-998,0,0,0,0.006052351091057062,0.023359879851341248,0.38666045665740967,-0.00019625909044407308,63,3135,0.018416166305541992,23.776,2.24,98,4,16,1.25,831,0.006054098717868328,0.004685118794441223,0.024661941453814507,1500,1500,1505,1500,1102,1500,1897,1424,1100,1100,1100,1100,0,0,0,0
1787009843.0818,2.1002,0.02127,47.01,106,1370854,0.922,LOITER,GUIDED,128,nan,nan,nan,nan,nan,nan,0.07102994920382333,-1.3240178278321189,-7.71822714805603,0.0,0.0,0.0,-0.5241311762647193,0.4381404486603829,0.7300527476509556,-0.6085153998811501,-14.499078798614828,12.015937378215503,0.031229381594331074,0.38711780309677124,0,6.5577192306518555,-6.666921615600586,2.2602148056030273,-0.03490331768989563,0.03597735986113548,-0.006838666740804911,4,-9,-1000,1,0,0,0.006085332948714495,0.023365985602140427,0.3866673409938812,0.0002462422999087721,63,3135,0.01913928985595703,23.776,2.24,98,4,16,1.25,831,0.006054098717868328,0.004685118794441223,0.024661941453814507,1500,1500,1504,1500,1102,1500,1897,1424,1100,1100,1100,1100,0,0,0,0
1787009843.1005,2.1202,0.01870,53.48,107,1370874,0.941,LOITER,GUIDED,128,nan,nan,nan,nan,nan,nan,0.07102994920382333,-1.3240178278321189,-7.71822714805603,0.0,0.0,0.0,-0.5258257418648414,0.4395535101281707,0.7251329391980047,-0.6043042096255737,-14.491875550768215,12.006924976186042,0.033482330407460015,0.38711780309677124,0,6.558389186859131,-6.665635108947754,2.258178234100342,-0.034657761454582214,0.03603894263505936,-0.006991668604314327,3,-8,-1000,0,0,0,0.0060944887809455395,0.023362524807453156,0.3866671621799469,0.00022746507602278143,63,3135,0.017874956130981445,23.776,2.24,98,4,16,1.25,831,0.006054098717868328,0.004685118794441223,0.024661941453814507,1500,1500,1504,1500,1102,1500,1897,1424,1100,1100,1100,1100,0,0,0,0
1787009843.1205,2.1402,0.02001,49.98,108,1370894,0.961,LOITER,GUIDED,128,nan,nan,nan,nan,nan,nan,0.07102994920382333,-1.3240178278321189,-7.71822714805603,0.0,0.0,0.0,-0.5272881028199711,0.44081204673660607,0.7211926353352799,-0.6008036896694491,-14.488157631850685,11.999183491785795,0.036033446984837084,0.38711780309677124,0,6.558976173400879,-6.664411544799805,2.2562968730926514,-0.03401687741279602,0.03643622621893883,-0.0074652573093771935,5,-8,-999,0,0,0,0.006107640918344259,0.023359373211860657,0.3866453468799591,-0.0009478061692789197,63,3135,0.019156932830810547,23.776,2.24,98,4,16,1.25,831,0.006054098717868328,0.004685118794441223,0.024661941453814507,1500,1500,1504,1500,1102,1500,1897,1424,1100,1100,1100,1100,0,0,0,0
1787009843.1403,2.1601,0.01988,50.29,109,1370914,0.981,LOITER,GUIDED,128,nan,nan,nan,nan,nan,nan,0.07102994920382333,-1.3240178278321189,-7.71822714805603,0.0,0.0,0.0,-0.5285621680021017,0.4418883185914471,0.71802685462715,-0.598020841335322,-14.485934429693582,11.995093628066721,0.0373655160019717,0.38711780309677124,0,6.558903694152832,-6.663460731506348,2.255358934402466,-0.0333225317299366,0.03618316724896431,-0.00774394953623414,3,-6,-998,0,0,0,0.006119188386946917,0.023351553827524185,0.3866533041000366,0.0002439609816065058,63,3135,0.01905083656311035,23.776,2.24,98,4,16,1.25,831,0.006054098717868328,0.004685118794441223,0.024661941453814507,1500,1500,1504,1500,1102,1500,1897,1424,1100,1100,1100,1100,0,0,0,0
1787009843.1605,2.1801,0.02013,49.67,110,1370934,0.001,LOITER,GUIDED,128,nan,nan,nan,nan,nan,nan,0.07102994920382333,-1.3240178278321189,-7.71822714805603,0.0,0.0,0.0,-0.5296128997242084,0.44275521939405327,0.7156657437777316,-0.5959744374727276,-14.485681176903718,11.991663767081052,0.0393411601260744,0.38711780309677124,0,6.559360504150391,-6.662299156188965,2.2537245750427246,-0.03280153498053551,0.036255933344364166,-0.00798527430742979,3,-7,-1000,0,0,0,0.006126842927187681,0.023347938433289528,0.38666099309921265,0.0004801501636393368,63,3135,0.019299030303955078,23.776,2.24,98,4,16,1.25,831,0.006054098717868328,0.004685118794441223,0.024661941453814507,1500,1500,1504,1500,1102,1500,1897,1424,1100,1100,1100,1100,0,0,0,0
1787009843.1815,2.2002,0.02100,47.61,111,1370954,0.022,LOITER,GUIDED,128,nan,nan,nan,nan,nan,nan,0.07102994920382333,-1.3240178278321189,-7.71822714805603,0.0,0.0,0.0,-0.5304579024651156,0.4433891301353273,0.713999597760692,-0.5946709414734845,-14.485315574284536,11.989628009791929,0.0401477732135267,0.38711780309677124,0,6.559227466583252,-6.661370277404785,2.2528727054595947,-0.032700736075639725,0.03646073117852211,-0.007953273132443428,3,-7,-1000,0,0,0,0.006127586122602224,0.023348594084382057,0.38666850328445435,0.00035135349025949836,63,3135,0.020049333572387695,23.795,2.16,98,4,16,1.76,831,0.006054098717868328,0.004685118794441223,0.024661941453814507,1500,1500,1504,1500,1102,1500,1897,1424,1100,1100,1100,1100,0,0,0,0
1787009843.2005,2.2201,0.01906,52.46,112,1370974,0.041,LOITER,GUIDED,128,nan,nan,nan,nan,nan,nan,0.07102994920382333,-1.3240178278321189,-7.71822714805603,0.0,0.0,0.0,-0.5312670112203555,0.44409485703583174,0.7124981072331965,-0.5932212893186721,-14.486510987862742,11.98777146939972,0.04196595992889847,0.38711780309677124,0,6.559584617614746,-6.660285949707031,2.2514116764068604,-0.03234999254345894,0.03650129213929176,-0.008205821737647057,3,-8,-999,0,0,0,0.006118964869529009,0.02334010601043701,0.38665008544921875,-0.0005469456082209945,63,3135,0.018121004104614258,23.795,2.16,98,4,16,1.76,831,0.006054098717868328,0.004685118794441223,0.024661941453814507,1500,1500,1504,1500,1102,1500,1897,1424,1100,1100,1100,1100,0,0,0,0
1787009843.2203,2.2401,0.01979,50.53,113,1370994,0.061,LOITER,GUIDED,128,nan,nan,nan,nan,nan,nan,0.07102994920382333,-1.3240178278321189,-7.71822714805603,0.0,0.0,0.0,-0.5318729164369879,0.4445771349199535,0.7116104315327718,-0.5924345849981086,-14.488737648089131,11.9867099578007,0.04376613306575742,0.38711780309677124,0,6.559865474700928,-6.659229278564453,2.250046968460083,-0.03200804069638252,0.03671431541442871,-0.008513742126524448,4,-8,-999,0,0,0,0.0061276075430214405,0.02334250696003437,0.38664162158966064,-0.0006750579923391342,63,3135,0.018967866897583008,23.795,2.16,98,4,16,1.76,831,0.006054098717868328,0.004685118794441223,0.024661941453814507,1500,1500,1504,1500,1102,1500,1897,1424,1100,1100,1100,1100,0,0,0,0
1787009843.2402,2.2603,0.01983,50.43,114,1371014,0.081,LOITER,GUIDED,128,nan,nan,nan,nan,nan,nan,0.07102994920382333,-1.3240178278321189,-7.71822714805603,0.0,0.0,0.0,-0.532211306649136,0.4448988921043851,0.7114751261904562,-0.5921004887794896,-14.490631520328321,11.986751691019409,0.04516661058048216,0.38711780309677124,0,6.559670448303223,-6.658354759216309,2.2491378784179688,-0.03211221843957901,0.03685159236192703,-0.008861205540597439,3,-8,-998,0,0,0,0.006142549682408571,0.02333720400929451,0.38662880659103394,-0.0004809587262570858,63,3135,0.019281625747680664,23.795,2.16,98,4,16,1.76,831,0.006504093296825886,0.0010343869216740131,0.07250210642814636,1500,1500,1504,1500,1102,1500,1897,1424,1100,1100,1100,1100,0,0,0,0
1787009843.2602,2.2801,0.02008,49.79,115,1371035,0.101,LOITER,GUIDED,128,nan,nan,nan,nan,nan,nan,0.07102994920382333,-1.3240178278321189,-7.71822714805603,0.0,0.0,0.0,-0.5327132428614308,0.44531036412871405,0.7108443586136592,-0.5914919150116016,-14.493610296647839,11.987600154926048,0.04829201629451177,0.38711780309677124,0,6.560247898101807,-6.657849311828613,2.2464661598205566,-0.03170820325613022,0.036594588309526443,-0.009182010777294636,3,-8,-999,0,0,0,0.006141223479062319,0.023337997496128082,0.38663598895072937,0.0001274086389457807,63,3135,0.01921701431274414,23.795,2.16,98,4,16,1.76,831,0.006504093296825886,0.0010343869216740131,0.07250210642814636,1500,1500,1504,1499,1102,1500,1897,1424,1100,1100,1100,1100,0,0,0,0
1787009843.2801,2.3001,0.01988,50.30,116,1371054,0.121,LOITER,GUIDED,128,nan,nan,nan,nan,nan,nan,0.07102994920382333,-1.3240178278321189,-7.71822714805603,0.0,0.0,0.0,-0.5330577696664108,0.4455794660279631,0.7106401265660863,-0.5912696038398967,-14.49636359868874,11.988147833463547,0.05058600235672571,0.38711780309677124,0,6.560370445251465,-6.657464027404785,2.2445647716522217,-0.03147473558783531,0.036752909421920776,-0.009459619410336018,5,-8,-1000,0,0,0,0.006149871740490198,0.023330386728048325,0.38662564754486084,-0.0001113015750888735,63,3135,0.019192218780517578,23.795,2.16,98,4,16,1.76,831,0.006504093296825886,0.0010343869216740131,0.07250210642814636,1500,1500,1504,1499,1102,1500,1897,1424,1100,1100,1100,1100,0,0,0,0
1787009843.3000,2.3201,0.01984,50.41,117,1371074,0.141,LOITER,GUIDED,128,nan,nan,nan,nan,nan,nan,0.07102994920382333,-1.3240178278321189,-7.71822714805603,0.0,0.0,0.0,-0.5333403562737125,0.445815246648163,0.7105674892565658,-0.5911064306856706,-14.501320564347207,11.990641076811285,0.054609465794248524,0.38711780309677124,0,6.561185836791992,-6.6574201583862305,2.2411601543426514,-0.03064900077879429,0.03624209016561508,-0.009897209703922272,3,-6,-1000,0,0,0,0.006180507596582174,0.023334670811891556,0.38662102818489075,-0.000264141708612442,63,3135,0.019217729568481445,23.795,2.16,98,4,16,1.76,831,0.006504093296825886,0.0010343869216740131,0.07250210642814636,1500,1500,1505,1499,1102,1500,1897,1424,1100,1100,1100,1100,0,0,0,0
1787009843.3199,2.3401,0.01993,50.18,118,1371094,0.161,LOITER,GUIDED,128,nan,nan,nan,nan,nan,nan,0.07102994920382333,-1.3240178278321189,-7.71822714805603,0.0,0.0,0.0,-0.5335258752933427,0.4459886239745698,0.7107222583240607,-0.5910844553402914,-14.505481532094823,11.993071290255353,0.0585117879989747,0.38711780309677124,0,6.561885833740234,-6.6573262214660645,2.2380082607269287,-0.03019854798913002,0.0357869453728199,-0.01042784284800291,3,-7,-999,0,0,0,0.00619858643040061,0.02334262989461422,0.3866071105003357,-0.0006479777512140572,63,3135,0.01939678192138672,23.795,2.16,98,4,16,1.76,831,0.006504093296825886,0.0010343869216740131,0.07250210642814636,1500,1500,1504,1499,1102,1500,1897,1424,1100,1100,1100,1100,0,0,0,0
1787009843.3398,2.3601,0.01990,50.25,119,1371094,0.180,LOITER,GUIDED,128,nan,nan,nan,nan,nan,nan,0.07102994920382333,-1.3240178278321189,-7.71822714805603,0.0,0.0,0.0,-0.5336565956447122,0.44613798624146545,0.7109740186888673,-0.5910906418256404,-14.507832480674365,11.994418043651702,0.0585117879989747,0.38711780309677124,0,6.561885833740234,-6.6573262214660645,2.2380082607269287,-0.03019854798913002,0.0357869453728199,-0.01042784284800291,3,-7,-999,0,0,0,0.00619858643040061,0.02334262989461422,0.3866071105003357,-0.0006479777512140572,63,3135,0.01939678192138672,23.795,2.16,98,4,16,1.76,831,0.006504093296825886,0.0010343869216740131,0.07250210642814636,1500,1500,1504,1499,1102,1500,1897,1424,1100,1100,1100,1100,0,0,0,0
1787009843.3601,2.3801,0.02029,49.29,120,1371134,0.201,LOITER,GUIDED,128,nan,nan,nan,nan,nan,nan,0.07102994920382333,-1.3240178278321189,-7.71822714805603,0.0,0.0,0.0,-0.5337746053786839,0.4462141805963273,0.711200385039769,-0.5912576579468531,-14.512894581795658,11.996859066062127,0.0638530134733122,0.38711780309677124,0,6.562504291534424,-6.656826019287109,2.233839273452759,-0.029235929250717163,0.03517664968967438,-0.011256740428507328,3,-7,-998,0,0,0,0.0062158252112567425,0.023360421881079674,0.38659021258354187,-0.0005782603984698653,63,3135,0.019659757614135742,23.795,2.16,98,4,16,1.76,831,0.006504093296825886,0.0010343869216740131,0.07250210642814636,1500,1500,1504,1498,1102,1500,1897,1424,1100,1100,1100,1100,0,0,0,0
1787009843.3801,2.4001,0.02005,49.87,121,1371154,0.221,LOITER,GUIDED,128,nan,nan,nan,nan,nan,nan,0.07102994920382333,-1.3240178278321189,-7.71822714805603,0.0,0.0,0.0,-0.5338241120785518,0.44626606916339756,0.7115645576597196,-0.5914469997094606,-14.515873959955796,11.997659556261837,0.06567746160489107,0.38711780309677124,0,6.56247091293335,-6.656404495239258,2.2324647903442383,-0.028886938467621803,0.035233207046985626,-0.011574913747608662,4,-8,-999,0,0,0,0.006214278284460306,0.02337230183184147,0.38658612966537476,-0.00018712507153395563,63,3135,0.019310712814331055,23.795,2.16,98,4,16,1.76,831,0.006504093296825886,0.0010343869216740131,0.07250210642814636,1500,1500,1504,1498,1102,1500,1897,1424,1100,1100,1100,1100,0,0,0,0
1787009843.3999,2.4201,0.01972,50.70,122,1371174,0.241,LOITER,GUIDED,128,nan,nan,nan,nan,nan,nan,0.07102994920382333,-1.3240178278321189,-7.71822714805603,0.0,0.0,0.0,-0.5338501449594281,0.44629852316576074,0.7119340502821915,-0.5916436050724966,-14.519532469704297,11.999638391840083,0.06873977795263765,0.38711780309677124,0,6.562953472137451,-6.656268119812012,2.230084180831909,-0.028395185247063637,0.034863416105508804,-0.012056953273713589,3,-6,-999,0,0,0,0.006219497416168451,0.023372836410999298,0.38659536838531494,0.00042790858424268663,63,3135,0.019176006317138672,23.795,2.16,98,4,16,1.76,831,0.006504093296825886,0.0010343869216740131,0.07250210642814636,1500,1500,1504,1498,1102,1500,1897,1424,1100,1100,1100,1100,0,0,0,0
1787009843.4198,2.4401,0.01993,50.17,123,1371194,0.260,LOITER,GUIDED,128,nan,nan,nan,nan,nan,nan,0.07102994920382333,-1.3240178278321189,-7.71822714805603,0.0,0.0,0.0,-0.5196089314582784,0.4344635464666022,0.7514542828945807,-0.6244050848097921,-14.583489719654322,12.051611647609363,0.07146272210666489,0.38711780309677124,0,6.563358783721924,-6.656099796295166,2.2278685569763184,-0.027944358065724373,0.03460695967078209,-0.012415682896971703,4,-7,-999,0,0,0,0.006238396745175123,0.02337385155260563,0.38658514618873596,-0.0005013442714698613,63,3135,0.019450902938842773,23.795,2.16,98,4,16,1.76,831,0.006504093296825886,0.0010343869216740131,0.07250210642814636,1500,1500,1504,1498,1102,1500,1897,1424,1100,1100,1100,1100,0,0,0,0
1787009843.4399,2.4601,0.02014,49.66,124,1371214,0.281,LOITER,GUIDED,128,nan,nan,nan,nan,nan,nan,0.07102994920382333,-1.3240178278321189,-7.71822714805603,0.0,0.0,0.0,-0.5220801491268766,0.4365199362060762,0.7429832021281664,-0.6172843587024918,-14.565626969641572,12.03571981389645,0.07289251520945168,0.38711780309677124,0,6.563266277313232,-6.6556715965271,2.2267885208129883,-0.027635637670755386,0.03448892757296562,-0.012662998400628567,3,-7,-999,0,0,0,0.006239984650164843,0.023371625691652298,0.3865871727466583,3.92911460949108e-05,63,3135,0.0195620059967041,23.795,2.16,98,4,16,1.76,831,0.00639701122418046,0.002929673995822668,0.07795309275388718,1500,1500,1504,1498,1102,1500,1897,1424,1100,1100,1100,1100,0,0,0,0
1787009843.4600,2.4801,0.02012,49.71,125,1371235,0.301,LOITER,GUIDED,128,nan,nan,nan,nan,nan,nan,0.07102994920382333,-1.3240178278321189,-7.71822714805603,0.0,0.0,0.0,-0.5241829425695719,0.4382602385893273,0.7361831701933352,-0.6115814374065527,-14.552888389875351,12.02500586733688,0.07603068824050516,0.38711780309677124,0,6.563612937927246,-6.655450344085693,2.224442481994629,-0.027334220707416534,0.03395209088921547,-0.013223121874034405,2,-8,-998,0,0,0,0.006250283215194941,0.02337956614792347,0.38658827543258667,0.00014505638682749122,63,3135,0.01940321922302246,23.795,2.16,98,4,16,1.76,831,0.00639701122418046,0.002929673995822668,0.07795309275388718,1500,1500,1504,1498,1102,1500,1897,1424,1100,1100,1100,1100,0,0,0,0
1787009843.4800,2.5001,0.02000,50.00,126,1371254,0.321,LOITER,GUIDED,128,nan,nan,nan,nan,nan,nan,0.07102994920382333,-1.3240178278321189,-7.71822714805603,0.0,0.0,0.0,-0.5260030057106372,0.439747672412489,0.7306724628060728,-0.6070007608971024,-14.542918698136118,12.015487305700532,0.07784383891297492,0.38711780309677124,0,6.563503742218018,-6.654977798461914,2.2229397296905518,-0.027205482125282288,0.034103818237781525,-0.013442606665194035,4,-8,-999,0,0,0,0.0062595936469733715,0.023392589762806892,0.38658004999160767,-2.7618123567663133e-05,63,3135,0.0192873477935791,23.795,2.16,98,4,16,1.76,831,0.00639701122418046,0.002929673995822668,0.07795309275388718,1500,1500,1504,1498,1102,1500,1897,1424,1100,1100,1100,1100,0,0,0,0
1787009843.5005,2.5202,0.02048,48.82,127,1371274,0.341,LOITER,GUIDED,128,nan,nan,nan,nan,nan,nan,0.07102994920382333,-1.3240178278321189,-7.71822714805603,0.0,0.0,0.0,-0.5274492078936087,0.4410192229236694,0.7265799740679467,-0.6033382140936334,-14.536529413931069,12.009472228104444,0.08117109189192084,0.38711780309677124,0,6.563791275024414,-6.654717445373535,2.2203474044799805,-0.02718762308359146,0.033913567662239075,-0.013962279073894024,3,-10,-999,0,0,0,0.006265141535550356,0.023386768996715546,0.3865889608860016,0.00030479731503874063,63,3135,0.01958775520324707,23.795,2.16,98,4,16,1.76,831,0.00639701122418046,0.002929673995822668,0.07795309275388718,1500,1500,1504,1498,1102,1500,1897,1424,1100,1100,1100,1100,0,0,0,0
1787009843.5205,2.5401,0.01997,50.08,128,1371294,0.361,LOITER,GUIDED,128,nan,nan,nan,nan,nan,nan,0.07102994920382333,-1.3240178278321189,-7.71822714805603,0.0,0.0,0.0,-0.5287764664857549,0.4421453819992413,0.7230992866940738,-0.6003248476745073,-14.532024118280912,12.00510885691745,0.08425246202059475,0.38711780309677124,0,6.564037322998047,-6.654468536376953,2.217947244644165,-0.027143631130456924,0.03379231318831444,-0.014443967491388321,3,-8,-998,0,0,0,0.006286839488893747,0.023391447961330414,0.38657915592193604,-0.00013315898831933737,63,3135,0.019088268280029297,23.795,2.16,98,4,16,1.76,831,0.00639701122418046,0.002929673995822668,0.07795309275388718,1500,1500,1504,1498,1102,1500,1897,1424,1100,1100,1100,1100,0,0,0,0
1787009843.5403,2.5607,0.01980,50.51,129,1371314,0.381,LOITER,GUIDED,128,nan,nan,nan,nan,nan,nan,0.07102994920382333,-1.3240178278321189,-7.71822714805603,0.0,0.0,0.0,-0.5139191806457184,0.42981070262270077,0.7636159346621774,-0.6339033639677256,-14.594615188120057,12.055673174961699,0.08563773075379044,0.38711780309677124,0,6.563863277435303,-6.653992652893066,2.21673321723938,-0.026732103899121284,0.03377684950828552,-0.014565053395926952,4,-7,-999,0,0,0,0.006301624234765768,0.02339898981153965,0.38657453656196594,-0.00027100584702566266,63,3135,0.019512176513671875,23.795,2.16,98,4,16,1.76,831,0.00639701122418046,0.002929673995822668,0.07795309275388718,1500,1500,1504,1498,1102,1500,1897,1424,1100,1100,1100,1100,0,0,0,0
1787009843.5603,2.5806,0.02000,50.00,130,1371334,0.401,LOITER,GUIDED,128,nan,nan,nan,nan,nan,nan,0.07102994920382333,-1.3240178278321189,-7.71822714805603,0.0,0.0,0.0,-0.5177928867808248,0.43306615512432123,0.7514717170536779,-0.6236645042157412,-14.572046732231014,12.036552957238312,0.08801709295211803,0.38711780309677124,0,6.564027309417725,-6.653724193572998,2.2147104740142822,-0.026362251490354538,0.033296700567007065,-0.014817221090197563,2,-6,-1000,0,0,0,0.006313186604529619,0.023400338366627693,0.3865557909011841,-0.0006636317120864987,63,3135,0.019542455673217773,23.795,2.16,98,4,16,1.76,831,0.00639701122418046,0.002929673995822668,0.07795309275388718,1500,1500,1504,1498,1102,1500,1897,1424,1100,1100,1100,1100,0,0,0,0
1787009843.5804,2.6002,0.02006,49.84,131,1371354,0.421,LOITER,GUIDED,128,nan,nan,nan,nan,nan,nan,0.07102994920382333,-1.3240178278321189,-7.71822714805603,0.0,0.0,0.0,-0.521197831037435,0.43586866203545355,0.7414947566023001,-0.6154045719949234,-14.555358937453493,12.02190922164754,0.08933968741202983,0.38711780309677124,0,6.5638251304626465,-6.653247356414795,2.2136006355285645,-0.02596431039273739,0.03312179073691368,-0.014967662282288074,3,-6,-1000,0,0,0,0.006312703248113394,0.023405451327562332,0.3865605890750885,-8.820441144052893e-05,63,3135,0.019327878952026367,23.795,2.16,98,4,16,1.76,831,0.00639701122418046,0.002929673995822668,0.07795309275388718,1500,1500,1504,1498,1102,1500,1897,1424,1100,1100,1100,1100,0,0,0,0
1787009843.6005,2.6201,0.02011,49.72,132,1371374,0.441,LOITER,GUIDED,128,nan,nan,nan,nan,nan,nan,0.07102994920382333,-1.3240178278321189,-7.71822714805603,0.0,0.0,0.0,-0.5238258407797415,0.43804467060436814,0.7342810044451875,-0.6093846348103469,-14.545115970757854,12.012820697865005,0.09147612658297198,0.38711780309677124,0,6.563924312591553,-6.65296745300293,2.2117793560028076,-0.0256299190223217,0.03285403922200203,-0.01519051380455494,3,-7,-999,0,0,0,0.006317168939858675,0.023408129811286926,0.3865653872489929,0.0004512708692345768,63,3135,0.01930689811706543,23.795,2.16,98,4,16,1.76,831,0.00639701122418046,0.002929673995822668,0.07795309275388718,1500,1500,1503,1498,1102,1500,1897,1424,1100,1100,1100,1100,0,0,0,0
1787009843.6203,2.6401,0.01987,50.33,133,1371394,0.461,LOITER,GUIDED,128,nan,nan,nan,nan,nan,nan,0.07102994920382333,-1.3240178278321189,-7.71822714805603,0.0,0.0,0.0,-0.5259702647559426,0.4397817677200464,0.7288433456649738,-0.6049389374498272,-14.53853738291402,12.007545187661611,0.09359510334087831,0.38711780309677124,0,6.563972473144531,-6.652667045593262,2.210073232650757,-0.025490665808320045,0.03249803185462952,-0.015482445247471333,3,-7,-999,0,0,0,0.006318312603980303,0.023412268608808517,0.38655826449394226,-0.00021978541917633265,63,3135,0.01911616325378418,23.795,2.16,98,4,16,1.76,831,0.00639701122418046,0.002929673995822668,0.07795309275388718,1500,1500,1503,1498,1102,1500,1897,1424,1100,1100,1100,1100,0,0,0,0
1787009843.6404,2.6601,0.02005,49.86,134,1371414,0.481,LOITER,GUIDED,128,nan,nan,nan,nan,nan,nan,0.07102994920382333,-1.3240178278321189,-7.71822714805603,0.0,0.0,0.0,-0.5277562248802953,0.44126374954744907,0.7246980456794045,-0.6014488350762386,-14.534934582570319,12.003793024283505,0.09463933706006028,0.38711780309677124,0,6.563725471496582,-6.652187347412109,2.209190607070923,-0.025234472006559372,0.03238819167017937,-0.015596719458699226,3,-7,-1000,0,0,0,0.006316692102700472,0.023407699540257454,0.3865526020526886,-8.437577344011515e-05,63,3135,0.019309282302856445,23.795,2.16,98,4,16,1.76,831,0.005426135379821062,0.0026234514079988003,0.028700489550828934,1500,1500,1503,1498,1102,1500,1897,1424,1100,1100,1100,1100,0,0,0,0
1787009843.6603,2.6802,0.01993,50.19,135,1371435,0.501,LOITER,GUIDED,128,nan,nan,nan,nan,nan,nan,0.07102994920382333,-1.3240178278321189,-7.71822714805603,0.0,0.0,0.0,-0.5291724665363609,0.44247675378603984,0.7217657284937748,-0.598865612312368,-14.53280018798207,12.001499256080681,0.0957365992196865,0.38711780309677124,0,6.563255786895752,-6.651374340057373,2.208124876022339,-0.025317834690213203,0.03234109282493591,-0.015619015321135521,3,-7,-1000,0,0,0,0.006321270484477282,0.02341584302484989,0.38654688000679016,-0.00011542915308382362,63,3135,0.019160985946655273,23.795,2.16,98,4,16,1.76,831,0.005426135379821062,0.0026234514079988003,0.028700489550828934,1500,1500,1503,1498,1102,1500,1897,1424,1100,1100,1100,1100,0,0,0,0
1787009843.6815,2.7002,0.02118,47.21,136,1371454,0.522,LOITER,GUIDED,128,nan,nan,nan,nan,nan,nan,0.07102994920382333,-1.3240178278321189,-7.71822714805603,0.0,0.0,0.0,-0.5303602241255427,0.4434711706854365,0.7195695295004217,-0.5969780605314637,-14.531717851525467,11.9995132866646,0.09619196411927924,0.38711780309677124,0,6.56254243850708,-6.650412082672119,2.2076210975646973,-0.025480709969997406,0.03267710655927658,-0.015584781765937805,4,-9,-1000,0,0,0,0.006322863977402449,0.023411404341459274,0.38652852177619934,-0.0008056631777435541,63,3135,0.020188570022583008,23.775,2.24,98,4,15,1.76,831,0.005426135379821062,0.0026234514079988003,0.028700489550828934,1500,1500,1503,1498,1102,1500,1897,1424,1100,1100,1100,1100,0,0,0,0
1787009843.7005,2.7201,0.01895,52.77,137,1371474,0.541,LOITER,GUIDED,128,nan,nan,nan,nan,nan,nan,0.07102994920382333,-1.3240178278321189,-7.71822714805603,0.0,0.0,0.0,-0.5313089625679475,0.444295185199322,0.7180747254423863,-0.5955993572137732,-14.531687591254165,11.998640242296846,0.09702422472932104,0.38711780309677124,0,6.561643600463867,-6.649181842803955,2.2069432735443115,-0.025640316307544708,0.03282175213098526,-0.015693984925746918,3,-8,-999,0,0,0,0.006316509563475847,0.023419249802827835,0.3865327835083008,4.052378062624484e-05,63,3135,0.018128156661987305,23.775,2.24,98,4,15,1.76,831,0.005426135379821062,0.0026234514079988003,0.028700489550828934,1500,1500,1503,1498,1102,1500,1897,1424,1100,1100,1100,1100,0,0,0,0
1787009843.7204,2.7401,0.01990,50.25,138,1371494,0.561,LOITER,GUIDED,128,nan,nan,nan,nan,nan,nan,0.07102994920382333,-1.3240178278321189,-7.71822714805603,0.0,0.0,0.0,-0.5320749524583993,0.4449292006739527,0.717073616276855,-0.5947392286968158,-14.532094789618057,11.998566432987912,0.09772937879078589,0.38711780309677124,0,6.560758113861084,-6.6479902267456055,2.2062859535217285,-0.02592967078089714,0.03297939896583557,-0.015727808699011803,3,-8,-1000,0,0,0,0.006311857607215643,0.023423507809638977,0.3865338861942291,0.0002677589072845876,63,3135,0.019073486328125,23.775,2.24,98,4,15,1.76,831,0.005426135379821062,0.0026234514079988003,0.028700489550828934,1500,1500,1503,1498,1102,1500,1897,1424,1100,1100,1100,1100,0,0,0,0
1787009843.7400,2.7601,0.01963,50.95,139,1371514,0.581,LOITER,GUIDED,128,nan,nan,nan,nan,nan,nan,0.07102994920382333,-1.3240178278321189,-7.71822714805603,0.0,0.0,0.0,-0.532600934151208,0.4454364188209556,0.7166879549714423,-0.5941962947900474,-14.534093305078951,11.99968287188942,0.09843255595020028,0.38711780309677124,0,6.560082912445068,-6.64710807800293,2.205850124359131,-0.025983473286032677,0.03293437138199806,-0.01591685228049755,3,-7,-999,0,0,0,0.006311729084700346,0.023432495072484016,0.3865412771701813,0.00022268787142820656,63,3135,0.019023656845092773,23.775,2.24,98,4,15,1.76,831,0.005426135379821062,0.0026234514079988003,0.028700489550828934,1500,1500,1503,1498,1102,1500,1897,1424,1100,1100,1100,1100,0,0,0,0
1787009843.7599,2.7801,0.01991,50.23,140,1371534,0.601,LOITER,GUIDED,128,nan,nan,nan,nan,nan,nan,0.07102994920382333,-1.3240178278321189,-7.71822714805603,0.0,0.0,0.0,-0.5330418338213663,0.44578712678474186,0.7164592970838239,-0.5940265514013511,-14.535958056971047,12.000637283961215,0.09886367372824291,0.38711780309677124,0,6.559239864349365,-6.646002769470215,2.2052924633026123,-0.026021819561719894,0.033027760684490204,-0.015827372670173645,3,-7,-1000,0,0,0,0.006322768982499838,0.02342591993510723,0.3865414559841156,0.0002011184551520273,63,3135,0.019360780715942383,23.775,2.24,98,4,15,1.76,831,0.005426135379821062,0.0026234514079988003,0.028700489550828934,1500,1500,1503,1498,1102,1500,1897,1424,1100,1100,1100,1100,0,0,0,0
1787009843.7798,2.8001,0.01994,50.15,141,1371554,0.621,LOITER,GUIDED,128,nan,nan,nan,nan,nan,nan,0.07102994920382333,-1.3240178278321189,-7.71822714805603,0.0,0.0,0.0,-0.5333482331872719,0.446069006563994,0.716508337367177,-0.5939694880377067,-14.538411332618745,12.002428929121516,0.0994458936311642,0.38711780309677124,0,6.558572769165039,-6.645143985748291,2.204866647720337,-0.025945374742150307,0.0328473299741745,-0.015937967225909233,3,-7,-999,0,0,0,0.006330094765871763,0.02342376485466957,0.38653624057769775,-0.0002736790047492832,63,3135,0.019461393356323242,23.775,2.24,98,4,15,1.76,831,0.005426135379821062,0.0026234514079988003,0.028700489550828934,1500,1500,1502,1498,1102,1500,1897,1424,1100,1100,1100,1100,0,0,0,0
1787009843.7998,2.8201,0.01996,50.09,142,1371574,0.640,LOITER,GUIDED,128,nan,nan,nan,nan,nan,nan,0.07102994920382333,-1.3240178278321189,-7.71822714805603,0.0,0.0,0.0,-0.5335748077925697,0.4462181094627704,0.7166735702810638,-0.5941940010869976,-14.540138087261825,12.003276769467211,0.09996904648264264,0.38711780309677124,0,6.5577569007873535,-6.64410400390625,2.2043380737304688,-0.026045527309179306,0.033052463084459305,-0.015934133902192116,3,-8,-1000,0,0,0,0.006322887260466814,0.023419013246893883,0.38653603196144104,0.00022410249221138656,63,3135,0.019483327865600586,23.775,2.24,98,4,15,1.76,831,0.005426135379821062,0.0026234514079988003,0.028700489550828934,1500,1500,1503,1498,1102,1500,1897,1424,1100,1100,1100,1100,0,0,0,0
1787009843.8199,2.8401,0.02006,49.84,143,1371594,0.661,LOITER,GUIDED,128,nan,nan,nan,nan,nan,nan,0.07102994920382333,-1.3240178278321189,-7.71822714805603,0.0,0.0,0.0,-0.5336720391767299,0.44639552088427054,0.7170832421546811,-0.5942472196118945,-14.541589773682265,12.003963422744892,0.10038442511998934,0.38711780309677124,0,6.556957244873047,-6.643103122711182,2.203829050064087,-0.02627553977072239,0.03310644254088402,-0.015867916867136955,3,-8,-1000,0,0,0,0.006318375002592802,0.023426298052072525,0.3865509629249573,0.0005180547013878822,63,3135,0.0195620059967041,23.775,2.24,98,4,15,1.76,831,0.005426135379821062,0.0026234514079988003,0.028700489550828934,1500,1500,1502,1498,1102,1500,1897,1424,1100,1100,1100,1100,0,0,0,0
1787009843.8401,2.8601,0.02023,49.44,144,1371614,0.681,LOITER,GUIDED,128,nan,nan,nan,nan,nan,nan,0.07102994920382333,-1.3240178278321189,-7.71822714805603,0.0,0.0,0.0,-0.5337355097350507,0.44647808256651217,0.7174675611645098,-0.5944769653466548,-14.542718753833732,12.004739624017542,0.10139442330333609,0.38711780309677124,0,6.556301593780518,-6.64229154586792,2.203443765640259,-0.026525547727942467,0.033203162252902985,-0.01630965620279312,3,-8,-998,0,0,0,0.006318623665720224,0.023420531302690506,0.3865525424480438,0.0004300207947380841,63,3135,0.01956653594970703,23.775,2.24,98,4,15,1.76,831,0.005194793920964003,0.0010949020506814122,0.033086344599723816,1500,1500,1503,1498,1102,1500,1897,1424,1100,1100,1100,1100,0,0,0,0
1787009843.8598,2.8801,0.01977,50.59,145,1371635,0.701,LOITER,GUIDED,128,nan,nan,nan,nan,nan,nan,0.07102994920382333,-1.3240178278321189,-7.71822714805603,0.0,0.0,0.0,-0.5337476930666742,0.4465179002912203,0.7178804730631927,-0.5947359816133039,-14.543612450125218,12.005003780258571,0.10205057432269923,0.38711780309677124,0,6.555529594421387,-6.641301155090332,2.2028920650482178,-0.026693876832723618,0.033339425921440125,-0.016383513808250427,3,-8,-999,0,0,0,0.006312340963631868,0.023417169228196144,0.3865601420402527,0.00019067934772465378,63,3135,0.0192263126373291,23.775,2.24,98,4,15,1.76,831,0.005194793920964003,0.0010949020506814122,0.033086344599723816,1500,1500,1503,1498,1102,1500,1897,1424,1100,1100,1100,1100,0,0,0,0
1787009843.8808,2.9005,0.02090,47.84,146,1371654,0.721,LOITER,GUIDED,128,nan,nan,nan,nan,nan,nan,0.07102994920382333,-1.3240178278321189,-7.71822714805603,0.0,0.0,0.0,-0.5190958800610899,0.4343794444935464,0.7582504433109942,-0.6281781785983339,-14.605922278073574,12.056007112325581,0.1025031574140092,0.38711780309677124,0,6.554892539978027,-6.640470027923584,2.202414035797119,-0.02666829526424408,0.03344302624464035,-0.016365520656108856,4,-7,-1000,0,1,0,0.006315532606095076,0.023436948657035828,0.3865400552749634,-0.0007051377324387431,63,3135,0.02012324333190918,23.775,2.24,98,4,15,1.76,831,0.005194793920964003,0.0010949020506814122,0.033086344599723816,1500,1500,1503,1498,1102,1500,1897,1424,1100,1100,1100,1100,0,0,0,0
1787009843.9004,2.9201,0.01961,50.98,147,1371674,0.741,LOITER,GUIDED,128,nan,nan,nan,nan,nan,nan,0.07102994920382333,-1.3240178278321189,-7.71822714805603,0.0,0.0,0.0,-0.5217846545763898,0.4366521766015074,0.7491234699861895,-0.6204960474112482,-14.584851573351083,12.037989393931111,0.10325081363626198,0.38711780309677124,0,6.554144859313965,-6.6394853591918945,2.201796531677246,-0.026918508112430573,0.033658575266599655,-0.01645755209028721,4,-9,-999,0,0,0,0.006303885485976934,0.02344505488872528,0.38653627038002014,-0.0004524739633779973,63,3135,0.018827438354492188,23.775,2.24,98,4,15,1.76,831,0.005194793920964003,0.0010949020506814122,0.033086344599723816,1500,1500,1503,1498,1102,1500,1897,1424,1100,1100,1100,1100,0,0,0,0
1787009843.9203,2.9401,0.01998,50.06,148,1371694,0.761,LOITER,GUIDED,128,nan,nan,nan,nan,nan,nan,0.07102994920382333,-1.3240178278321189,-7.71822714805603,0.0,0.0,0.0,-0.5238832947961753,0.4383589086534189,0.7422234586697664,-0.6148742536124631,-14.569778825099737,12.025255177634026,0.10396357810043165,0.38711780309677124,0,6.5534138679504395,-6.638542175292969,2.2012107372283936,-0.026925092563033104,0.033696386963129044,-0.01654733344912529,3,-8,-999,0,0,0,0.006302881520241499,0.023442065343260765,0.3865344226360321,-0.0001389825774822384,63,3135,0.019249916076660156,23.775,2.24,98,4,15,1.76,831,0.005194793920964003,0.0010949020506814122,0.033086344599723816,1500,1500,1502,1498,1102,1500,1897,1424,1100,1100,1100,1100,0,0,0,0
1787009843.9400,2.9602,0.01963,50.95,149,1371714,0.781,LOITER,GUIDED,128,nan,nan,nan,nan,nan,nan,0.07102994920382333,-1.3240178278321189,-7.71822714805603,0.0,0.0,0.0,-0.5090349466625964,0.42605821016515616,0.7816519067924844,-0.6475338977119237,-14.625170087973688,12.071606818619168,0.10466220152906011,0.38711780309677124,0,6.552783012390137,-6.637749195098877,2.2005951404571533,-0.02719380334019661,0.033607516437768936,-0.0166060421615839,3,-8,-999,0,0,0,0.006294722203165293,0.023448137566447258,0.3865271210670471,-0.0004297657869756222,63,3135,0.0190889835357666,23.775,2.24,98,4,15,1.76,831,0.005194793920964003,0.0010949020506814122,0.033086344599723816,1500,1500,1502,1498,1102,1500,1897,1424,1100,1100,1100,1100,0,0,0,0
1787009843.9599,2.9801,0.01989,50.28,150,1371734,0.801,LOITER,GUIDED,128,nan,nan,nan,nan,nan,nan,0.07102994920382333,-1.3240178278321189,-7.71822714805603,0.0,0.0,0.0,-0.5136969041132464,0.4298870865238381,0.7664238672041351,-0.6350115367019226,-14.591554684239428,12.044316909337473,0.10589384398992115,0.38711780309677124,0,6.552055358886719,-6.63684606552124,2.199723482131958,-0.02783074788749218,0.033841751515865326,-0.016860589385032654,3,-9,-999,0,0,0,0.006306900177150965,0.023452645167708397,0.3865373134613037,0.0005173057434149086,63,3135,0.019401073455810547,23.775,2.24,98,4,15,1.76,831,0.005194793920964003,0.0010949020506814122,0.033086344599723816,1500,1500,1502,1498,1102,1500,1897,1424,1100,1100,1100,1100,0,0,0,0
1787009843.9799,3.0001,0.02001,49.99,151,1371754,0.821,LOITER,GUIDED,128,nan,nan,nan,nan,nan,nan,0.07102994920382333,-1.3240178278321189,-7.71822714805603,0.0,0.0,0.0,-0.5174988659751885,0.43304112013300944,0.7546218866682701,-0.6252216233503084,-14.568650241092882,12.025394087957773,0.10646721590984727,0.38711780309677124,0,6.55141544342041,-6.636068344116211,2.1991353034973145,-0.02767939493060112,0.033583156764507294,-0.016850119456648827,2,-7,-1000,0,0,0,0.0063097053207457066,0.023459376767277718,0.3865472972393036,0.00021663751977030188,63,3135,0.01948690414428711,23.775,2.24,98,4,15,1.76,831,0.005194793920964003,0.0010949020506814122,0.033086344599723816,1500,1500,1502,1498,1102,1500,1897,1424,1100,1100,1100,1100,0,0,0,0
1787009843.9998,3.0201,0.01990,50.25,152,1371774,0.840,LOITER,GUIDED,128,nan,nan,nan,nan,nan,nan,0.07102994920382333,-1.3240178278321189,-7.71822714805603,0.0,0.0,0.0,-0.502408961457385,0.42053878649347426,0.7939059200993974,-0.6577632153881261,-14.62151593376854,12.069173660021626,0.10721279721377654,0.38711780309677124,0,6.550704479217529,-6.635215759277344,2.1983375549316406,-0.02779405005276203,0.03356562554836273,-0.016813231632113457,3,-7,-1000,0,0,0,0.006308562587946653,0.02345612272620201,0.38654783368110657,0.0003889348590746522,63,3135,0.019475221633911133,23.775,2.24,98,4,15,1.76,831,0.005194793920964003,0.0010949020506814122,0.033086344599723816,1500,1500,1502,1498,1102,1500,1897,1424,1100,1100,1100,1100,0,0,0,0
1787009844.0198,3.0401,0.02006,49.84,153,1371794,0.861,LOITER,GUIDED,128,nan,nan,nan,nan,nan,nan,0.07102994920382333,-1.3240178278321189,-7.71822714805603,0.0,0.0,0.0,-0.5086805619822073,0.42578114345799645,0.7746287862087423,-0.6416708127626279,-14.584762168165836,12.038423916310945,0.10781218551564858,0.38711780309677124,0,6.549993991851807,-6.634377956390381,2.197577476501465,-0.027637744322419167,0.033387091010808945,-0.01669960655272007,3,-6,-1000,0,0,0,0.006307948846369982,0.023453673347830772,0.38655853271484375,0.0003234957403037697,63,3135,0.01956462860107422,23.775,2.24,98,4,15,1.76,831,0.005194793920964003,0.0010949020506814122,0.033086344599723816,1500,1500,1502,1498,1102,1500,1897,1424,1100,1100,1100,1100,0,0,0,0
1787009844.0398,3.0601,0.02002,49.95,154,1371814,0.881,LOITER,GUIDED,128,nan,nan,nan,nan,nan,nan,0.07102994920382333,-1.3240178278321189,-7.71822714805603,0.0,0.0,0.0,-0.5138041735270623,0.4300287270524777,0.7597762595179499,-0.6293654310556641,-14.558697364985946,12.016993109250128,0.10804110640101273,0.38711780309677124,0,6.549370288848877,-6.633641242980957,2.197143316268921,-0.027617348358035088,0.033220935612916946,-0.01655448041856289,3,-7,-1000,0,0,0,0.00629426958039403,0.02344268187880516,0.3865443468093872,-0.0003521765465848148,63,3135,0.019560575485229492,23.775,2.24,98,4,15,1.76,831,0.004172754939645529,0.005959094036370516,0.013214505277574062,1500,1500,1502,1498,1102,1500,1897,1424,1100,1100,1100,1100,0,0,0,0
1787009844.0608,3.0809,0.02098,47.66,155,1371835,0.902,LOITER,GUIDED,128,nan,nan,nan,nan,nan,nan,0.07102994920382333,-1.3240178278321189,-7.71822714805603,0.0,0.0,0.0,-0.5174922783467523,0.43309495658567154,0.7497009278382925,-0.6209972744665341,-14.542636548357164,12.002296124202829,0.10911398426677682,0.38711780309677124,0,6.548712730407715,-6.632559299468994,2.196272134780884,-0.02761133760213852,0.033567171543836594,-0.016697101294994354,4,-8,-999,0,0,0,0.006303762551397085,0.02343282289803028,0.38655591011047363,6.901561573613435e-05,63,3135,0.02044677734375,23.775,2.24,98,4,15,1.76,831,0.004172754939645529,0.005959094036370516,0.013214505277574062,1500,1500,1502,1498,1102,1500,1897,1424,1100,1100,1100,1100,0,0,0,0
1787009844.0798,3.1001,0.01898,52.68,156,1371854,0.920,LOITER,GUIDED,128,nan,nan,nan,nan,nan,nan,0.07102994920382333,-1.3240178278321189,-7.71822714805603,0.0,0.0,0.0,-0.5215639740518613,0.43647020128248804,0.7392844485553562,-0.6123675452537345,-14.528790764453555,11.989960535561552,0.11014313982070364,0.38711780309677124,0,6.548145771026611,-6.631577968597412,2.195526361465454,-0.027454357594251633,0.033590495586395264,-0.01689748279750347,3,-6,-999,0,0,0,0.006307570729404688,0.02344425953924656,0.3865481913089752,-0.00010071875294670463,63,3135,0.018469572067260742,23.775,2.24,98,4,15,1.76,831,0.004172754939645529,0.005959094036370516,0.013214505277574062,1500,1500,1502,1498,1102,1500,1897,1424,1100,1100,1100,1100,0,0,0,0
1787009844.0998,3.1201,0.02004,49.91,157,1371874,0.941,LOITER,GUIDED,128,nan,nan,nan,nan,nan,nan,0.07102994920382333,-1.3240178278321189,-7.71822714805603,0.0,0.0,0.0,-0.5243537676392568,0.4387916661032444,0.7328137700466069,-0.6069834257174949,-14.521496439384421,11.982807484104004,0.11134311032797728,0.38711780309677124,0,6.54755973815918,-6.630325794219971,2.1944196224212646,-0.027670087292790413,0.033902548253536224,-0.016963407397270203,3,-8,-999,0,0,0,0.006308247800916433,0.023451384156942368,0.386547327041626,-0.00031821304582990706,63,3135,0.019495725631713867,23.775,2.24,98,4,15,1.76,831,0.004172754939645529,0.005959094036370516,0.013214505277574062,1500,1500,1502,1498,1102,1500,1897,1424,1100,1100,1100,1100,0,0,0,0
1787009844.1200,3.1401,0.02011,49.73,158,1371894,0.961,LOITER,GUIDED,128,nan,nan,nan,nan,nan,nan,0.07102994920382333,-1.3240178278321189,-7.71822714805603,0.0,0.0,0.0,-0.5266006160534841,0.4406472323082302,0.7280783516594121,-0.603077862307851,-14.518689644281308,11.978994968659753,0.11285633365605202,0.38711780309677124,0,6.546965599060059,-6.629117965698242,2.193371534347534,-0.02746087871491909,0.03406176716089249,-0.017292307689785957,4,-7,-998,0,0,0,0.006302530411630869,0.023451749235391617,0.3865276277065277,-0.0007360664312727749,63,3135,0.01946091651916504,23.775,2.24,98,4,15,1.76,831,0.004172754939645529,0.005959094036370516,0.013214505277574062,1500,1500,1502,1498,1102,1500,1897,1424,1100,1100,1100,1100,0,0,0,0
1787009844.1400,3.1602,0.02008,49.80,159,1371914,0.981,LOITER,GUIDED,128,nan,nan,nan,nan,nan,nan,0.07102994920382333,-1.3240178278321189,-7.71822714805603,0.0,0.0,0.0,-0.528316594131072,0.442093262467342,0.7249216603465162,-0.6003970312099538,-14.518095661658165,11.978152913637638,0.11368450813990849,0.38711780309677124,0,6.546390056610107,-6.628187656402588,2.1927971839904785,-0.02751508355140686,0.034023646265268326,-0.017471788451075554,3,-8,-999,0,0,0,0.006296021398156881,0.023449968546628952,0.3865295350551605,0.00010481038771104068,63,3135,0.01948404312133789,23.775,2.24,98,4,15,1.76,831,0.004172754939645529,0.005959094036370516,0.013214505277574062,1500,1500,1502,1498,1102,1500,1897,1424,1100,1100,1100,1100,0,0,0,0
1787009844.1601,3.1801,0.02006,49.86,160,1371934,0.001,LOITER,GUIDED,128,nan,nan,nan,nan,nan,nan,0.07102994920382333,-1.3240178278321189,-7.71822714805603,0.0,0.0,0.0,-0.5297799189561073,0.443300830348733,0.7224811475588165,-0.5983889352425921,-14.51771001758312,11.977395946621707,0.11464644847529061,0.38711780309677124,0,6.545804023742676,-6.627058029174805,2.192028760910034,-0.02796703763306141,0.03432236611843109,-0.017608625814318657,3,-9,-999,0,0,0,0.006286263931542635,0.02344433218240738,0.3865308165550232,9.854546806309372e-05,63,3135,0.019396305084228516,23.775,2.24,98,4,15,1.76,831,0.004172754939645529,0.005959094036370516,0.013214505277574062,1500,1500,1502,1498,1102,1500,1897,1424,1100,1100,1100,1100,0,0,0,0
1787009844.1803,3.2001,0.02017,49.59,161,1371954,0.021,LOITER,GUIDED,128,nan,nan,nan,nan,nan,nan,0.07102994920382333,-1.3240178278321189,-7.71822714805603,0.0,0.0,0.0,-0.530933672984962,0.4442653198012499,0.7208507156370693,-0.5970150843878196,-14.519440854066971,11.97864067353455,0.1151807053366665,0.38711780309677124,0,6.545224666595459,-6.626159191131592,2.191478967666626,-0.02801121398806572,0.03424997627735138,-0.017597639933228493,2,-8,-1000,0,0,0,0.006287403870373964,0.023448720574378967,0.3865296244621277,-6.70769513817504e-05,63,3135,0.019577980041503906,23.78,2.23,98,4,16,1.76,831,0.004172754939645529,0.005959094036370516,0.013214505277574062,1500,1500,1502,1498,1102,1500,1897,1424,1100,1100,1100,1100,0,0,0,0
1787009844.2007,3.2204,0.02040,49.03,162,1371974,0.041,LOITER,GUIDED,128,nan,nan,nan,nan,nan,nan,0.07102994920382333,-1.3240178278321189,-7.71822714805603,0.0,0.0,0.0,-0.531583717006806,0.4447865226540774,0.7205228093561951,-0.5967898051498324,-14.523379286907645,11.980585141510208,0.1160224966536507,0.38711780309677124,0,6.5446367263793945,-6.625090599060059,2.1907618045806885,-0.027864830568432808,0.03446177765727043,-0.017685765400528908,4,-7,-999,0,0,0,0.006276531610637903,0.02343655563890934,0.386531263589859,7.550574082415551e-05,63,3135,0.019602537155151367,23.78,2.23,98,4,16,1.76,831,0.004172754939645529,0.005959094036370516,0.013214505277574062,1500,1500,1501,1498,1102,1500,1897,1424,1100,1100,1100,1100,0,0,0,0
